timestamp,ax,ay,az,gx,gy,gz
1710000000.0,0.0152,0.0113,9.7945,-0.01557,0.01129,-0.00365
1710000000.01,-0.052,-0.0027,9.813,0.01137,-0.00774,-0.00924
1710000000.02,0.0375,0.0432,9.748,-0.02026,-0.00314,0.00333
1710000000.03,0.047,0.0303,9.7406,0.0161,-0.00345,0.00611
1710000000.04,-0.0976,-0.1493,9.8191,-0.00256,-0.01334,0.00485
1710000000.05,-0.0651,0.0273,9.7721,0.00369,-0.0078,-0.0167
1710000000.06,0.0064,-0.0502,9.7374,0.01062,-0.011,0.00345
1710000000.07,-0.0158,-0.0711,9.8583,-0.00603,-0.01049,0.01041
1710000000.08,-0.0008,-0.0094,9.7784,0.00599,-0.00115,0.00084
1710000000.09,-0.0427,0.0205,9.8675,-0.01024,0.00796,0.00506
1710000000.1,0.044,-0.082,9.8114,-0.00641,0.0188,0.01303
1710000000.11,0.0389,0.0352,9.8247,0.00438,0.00556,-0.01068
1710000000.12,0.0033,0.0382,9.7994,0.00417,0.01684,-0.00129
1710000000.13,0.0564,0.0023,9.6772,0.00361,-0.01187,-0.01087
1710000000.14,0.0234,-0.0434,9.7532,0.01477,0.01763,-0.00322
1710000000.15,-0.043,-0.049,9.8037,-0.00077,-0.00316,-0.01
1710000000.16,0.0184,0.0513,9.8282,0.01608,0.02222,0.00057
1710000000.17,-0.0479,-0.0756,9.7205,0.0006,-0.00969,0.01656
1710000000.18,0.0439,0.0532,9.8073,0.00603,0.01071,-0.00277
1710000000.19,-0.0025,-0.0083,9.7539,0.00733,-0.012,0.00149
1710000000.2,-0.0092,-0.0048,9.8217,-0.00505,-0.01131,0.01496
1710000000.21,-0.034,-0.0854,9.809,0.0021,0.02232,-0.00737
1710000000.22,0.0611,-0.0073,9.8472,-0.01452,-0.00856,-0.00388
1710000000.23,-0.0077,0.0307,9.8633,0.00108,0.00248,-0.0005
1710000000.24,-0.0214,-0.0668,9.8329,0.0007,-0.01173,-0.0041
1710000000.25,-0.0176,0.0249,9.853,0.00538,0.00035,0.01327
1710000000.26,0.0266,0.0045,9.7925,-0.00124,0.02032,-0.01001
1710000000.27,0.0183,-0.0322,9.9512,0.01785,0.00283,-0.00252
1710000000.28,0.0206,0.0427,9.7491,-0.01698,-0.00534,0.01176
1710000000.29,0.0215,-0.1101,9.7836,-0.01175,-0.00394,0.00151
1710000000.3,0.1071,0.0173,9.8551,-0.00957,-0.00122,-0.00738
1710000000.31,-0.0203,0.081,9.8476,-0.0004,0.00047,-0.00466
1710000000.32,-0.0256,0.072,9.8344,-0.00779,0.00403,0.00412
1710000000.33,-0.0407,0.0195,9.8438,-0.01172,0.00798,-0.01592
1710000000.34,0.0308,-0.0151,9.7058,-0.00504,-0.00628,0.01293
1710000000.35,0.0564,-0.0318,9.8895,-0.01473,0.006,0.00049
1710000000.36,-0.0057,-0.0151,9.7998,0.00363,-0.01676,0.00508
1710000000.37,-0.042,0.0272,9.8723,0.00307,0.00198,-0.00295
1710000000.38,-0.0412,-0.0404,9.7083,-0.01269,-0.0075,-0.00118
1710000000.39,0.0325,0.0379,9.8228,0.00871,-0.00169,0.00225
1710000000.4,0.0372,0.1067,9.7818,-0.01334,0.00516,0.00414
1710000000.41,0.0272,-0.0031,9.8386,-0.0054,0.01376,0.01646
1710000000.42,-0.0333,-0.0672,9.8259,0.00226,-0.00275,0.00513
1710000000.43,0.0116,-0.0672,9.8283,0.00065,0.00351,0.00433
1710000000.44,0.0058,0.0388,9.7571,-0.01563,0.002,-0.00199
1710000000.45,0.0109,-0.003,9.8072,0.00445,-0.01775,0.00784
1710000000.46,0.0436,0.0438,9.801,-0.00048,0.00265,-0.00372
1710000000.47,0.0112,-0.0267,9.8348,0.01894,0.0204,0.00476
1710000000.48,0.0339,0.0415,9.8595,0.00595,0.00949,0.00088
1710000000.49,0.0034,-0.0079,9.8175,0.01471,-0.00395,-0.01127
1710000000.5,0.0145,-0.0366,9.7462,-0.00943,-0.00413,0.00686
1710000000.51,0.0316,-0.02,9.8154,-0.01578,-0.00565,-0.00811
1710000000.52,-0.0729,-0.0599,9.9406,0.01326,0.00652,0.02472
1710000000.53,-0.016,0.0995,9.8923,0.00348,0.0007,0.00439
1710000000.54,-0.0235,-0.0048,9.6613,0.01828,-0.01468,0.00511
1710000000.55,-0.0319,0.0322,9.8132,0.01125,0.00685,-0.01669
1710000000.56,-0.0138,-0.0268,9.8566,0.01068,0.00562,0.01952
1710000000.57,0.0747,-0.0526,9.8009,0.00456,6e-05,-0.01065
1710000000.58,-0.0433,-0.0117,9.787,-0.00857,0.00218,-0.0218
1710000000.59,0.0484,0.0551,9.7967,-0.01011,-0.00841,0.00175
1710000000.6,-0.0841,-0.026,9.8376,-0.02027,0.0151,-0.01987
1710000000.61,-0.0167,-0.0435,9.7526,-0.00524,-0.01454,0.00131
1710000000.62,0.0081,0.0078,9.8694,-0.0001,-0.00048,-0.00297
1710000000.63,0.0293,0.025,9.8072,-0.001,0.00022,-0.01817
1710000000.64,0.0356,0.0821,9.7632,0.00017,-0.00381,-0.00354
1710000000.65,0.0397,0.0177,9.8662,-0.02129,0.00066,0.00184
1710000000.66,-0.0174,0.0322,9.7327,0.00198,-0.00989,0.01241
1710000000.67,-0.0231,0.036,9.7822,0.01529,-0.0056,-0.00826
1710000000.68,0.0429,-0.0577,9.7814,-0.00796,-0.00969,0.01115
1710000000.69,-0.0096,-0.0482,9.9172,-0.01434,-0.0018,0.00949
1710000000.7,-0.0638,-0.0542,9.7757,-0.01574,0.0142,-0.00385
1710000000.71,-0.0567,-0.0666,9.7023,-0.00633,0.00524,-0.00707
1710000000.72,-0.046,0.0398,9.7809,-0.00377,-0.01266,-0.01063
1710000000.73,0.0249,0.0145,9.8328,0.00187,-0.00255,0.00175
1710000000.74,0.0071,0.004,9.8492,0.00768,-0.00028,-0.00581
1710000000.75,0.0345,-0.1296,9.9238,-0.00969,-0.00664,-0.00213
1710000000.76,-0.0214,0.1028,9.8803,-0.00522,-0.00455,0.00447
1710000000.77,0.0079,-0.0447,9.8194,-0.01645,0.01293,0.00888
1710000000.78,0.0313,0.1026,9.7654,0.00565,-0.01695,0.00149
1710000000.79,-0.0155,-0.0725,9.8912,-0.00396,0.00424,-0.00864
1710000000.8,0.0228,-0.0406,9.7916,-0.00247,-0.01814,-0.00893
1710000000.81,-0.0331,-0.1101,9.7771,0.01296,0.00295,-0.01242
1710000000.82,-0.0182,0.0181,9.7891,0.00094,-0.00862,0.01278
1710000000.83,-0.0191,-0.0551,9.7474,0.01682,0.00642,-0.00103
1710000000.84,-0.0598,-0.0537,9.7867,0.00735,0.01964,0.01011
1710000000.85,0.0243,-0.0686,9.7983,-0.00441,-0.00054,0.01475
1710000000.86,-0.0235,0.0389,9.8465,-0.01128,0.01334,-0.0125
1710000000.87,0.0006,0.0356,9.7906,-0.00172,0.00692,0.01864
1710000000.88,0.024,0.0906,9.7466,0.01008,0.0046,0.00913
1710000000.89,0.0223,-0.0343,9.7298,-0.01402,-0.01048,0.00808
1710000000.9,0.0333,0.0109,9.8205,-0.00617,0.0111,0.00787
1710000000.91,-0.0049,-0.0645,9.8136,-0.00843,0.00426,0.00966
1710000000.92,-0.0212,-0.0168,9.7823,-0.00433,-0.01041,0.00095
1710000000.93,-0.004,-0.0259,9.7866,0.00388,-0.00919,-0.01068
1710000000.94,-0.0844,0.0232,9.8294,0.00189,-0.00555,0.00102
1710000000.95,-0.0724,0.0509,9.8795,0.00169,-0.00867,-0.01581
1710000000.96,-0.0661,0.0496,9.771,-0.01402,-0.0014,-0.00962
1710000000.97,-0.0499,-0.0421,9.8144,0.00703,0.00576,-0.01056
1710000000.98,0.02,0.0499,9.8579,0.00991,-0.00224,-0.00551
1710000000.99,-0.0453,-0.0022,9.7712,-0.00245,0.00218,-0.00419
1710000001.0,-0.0189,-0.0162,9.8092,-0.009,-0.01244,-0.01919
1710000001.01,0.065,-0.0354,9.8081,0.00811,0.01042,-0.00753
1710000001.02,-0.0178,-0.028,9.7444,0.01334,0.0088,0.00036
1710000001.03,0.0369,0.0871,9.8184,0.00375,0.02096,-0.01529
1710000001.04,-0.0467,0.0154,9.8116,-0.00729,-0.01039,-0.00604
1710000001.05,-0.0103,0.0087,9.8378,-0.01063,-0.01154,0.00335
1710000001.06,-0.0475,-0.0131,9.7507,0.00565,-0.01318,-0.01923
1710000001.07,-0.017,0.1223,9.8105,-0.01566,0.01228,-0.00565
1710000001.08,0.042,0.0653,9.8791,-0.01397,-0.01403,0.00061
1710000001.09,-0.0864,-0.0361,9.9139,0.0021,-0.00442,0.01046
1710000001.1,0.0217,-0.0137,9.874,0.01569,-0.01578,0.01558
1710000001.11,0.0119,-0.0107,9.7511,0.01149,0.00077,0.00549
1710000001.12,-0.0297,0.0073,9.8326,0.0038,0.00222,0.01746
1710000001.13,-0.0723,-0.0351,9.7858,-0.02089,0.00464,0.02076
1710000001.14,0.0036,0.0219,9.8242,-0.02457,-0.00098,0.00472
1710000001.15,-0.0265,0.0726,9.7714,-0.00174,-0.01144,-0.00656
1710000001.16,0.0116,-0.0657,9.7243,0.01765,0.00508,-0.00233
1710000001.17,0.0011,-0.0564,9.7928,-0.00892,0.00062,3e-05
1710000001.18,0.0801,-0.0242,9.8461,0.00862,0.00049,0.00611
1710000001.19,-0.012,-0.0218,9.8244,0.00309,-0.00881,-0.01673
1710000001.2,-0.0512,0.0999,9.8301,-0.00574,0.00401,-0.003
1710000001.21,0.009,0.0501,9.8208,-0.00411,0.00832,0.00292
1710000001.22,0.011,0.0472,9.8302,-0.01684,-0.00836,0.00357
1710000001.23,0.068,-0.0132,9.8365,0.0044,-0.01348,-3e-05
1710000001.24,0.0418,-0.0143,9.7963,-0.00655,0.00748,-0.01146
1710000001.25,0.0178,-0.0726,9.8141,0.00849,-0.01797,-0.00033
1710000001.26,0.0732,0.0391,9.8972,-0.00225,-0.01004,-0.00929
1710000001.27,-0.0594,0.0246,9.8171,-0.00296,-0.00763,-0.01134
1710000001.28,-0.032,0.0643,9.8121,-0.02114,-0.00856,0.0178
1710000001.29,-0.0463,-0.0105,9.8151,0.00288,0.00734,-0.01866
1710000001.3,-0.0195,-0.0071,9.7991,0.00511,0.01155,0.00062
1710000001.31,-0.0688,0.0085,9.7882,0.01259,0.01003,0.00735
1710000001.32,0.0318,0.0446,9.8204,-0.00845,-0.00937,0.00948
1710000001.33,-0.0111,-0.0735,9.7847,0.00265,0.01491,0.00243
1710000001.34,-0.0735,0.0368,9.8027,0.004,-0.01284,-0.00081
1710000001.35,-0.0508,-0.001,9.7705,-0.01276,0.00245,0.01134
1710000001.36,0.0157,-0.0529,9.8154,-0.00626,0.00186,0.00017
1710000001.37,0.0419,-0.1042,9.8392,-0.01187,0.01515,0.01172
1710000001.38,0.0998,-0.0068,9.7994,-0.01103,0.00504,0.01234
1710000001.39,0.1457,0.0724,9.7096,-0.00396,0.0169,-0.00199
1710000001.4,0.0207,0.0837,9.8395,-0.00692,-0.0087,0.01269
1710000001.41,-0.0495,0.0178,9.816,-0.00017,0.00856,-0.01289
1710000001.42,-0.1066,0.0981,9.7603,0.00627,0.01139,0.00835
1710000001.43,0.0134,-0.0021,9.8487,0.00592,0.00545,-0.019
1710000001.44,-0.0406,0.0477,9.7401,0.00787,-0.00823,0.01111
1710000001.45,-0.0208,-0.0226,9.8623,-0.00266,-0.00272,0.02408
1710000001.46,-0.0306,-0.0257,9.8071,-0.00515,0.0063,0.00195
1710000001.47,-0.007,-0.0339,9.6966,-0.01231,0.00772,0.00259
1710000001.48,0.0533,-0.103,9.8189,0.007,-0.00956,0.01691
1710000001.49,0.0079,0.0644,9.7897,0.00976,-0.01136,-0.00086
1710000001.5,-0.0079,-0.0321,9.7822,0.01253,0.01273,-0.02506
1710000001.51,-0.0518,-0.0401,9.7731,0.00314,0.0099,0.00282
1710000001.52,-0.0837,-0.059,9.8036,-0.00467,0.01284,-0.00895
1710000001.53,-0.0243,-0.0102,9.7857,-0.01086,0.01837,-0.00126
1710000001.54,-0.0027,0.0882,9.7172,-0.0134,0.0016,-0.01081
1710000001.55,0.0884,0.1047,9.8736,-0.01962,-0.01549,0.01546
1710000001.56,0.0065,-0.083,9.7978,0.01028,0.01456,0.00493
1710000001.57,0.0491,-0.0177,9.7734,0.00382,-0.00133,-0.00373
1710000001.58,-0.025,-0.0517,9.7536,0.02336,0.01729,0.00602
1710000001.59,-0.0592,0.0494,9.8485,-0.00121,-0.00822,-0.00058
1710000001.6,-0.0483,0.0143,9.7451,0.00057,0.00975,0.01558
1710000001.61,-0.0363,-0.0318,9.8167,0.00362,-0.01043,0.0051
1710000001.62,0.1064,0.0036,9.7808,0.00598,0.01495,0.01453
1710000001.63,-0.0411,-0.0239,9.7837,-0.00675,-0.01538,-0.00581
1710000001.64,0.0419,0.0807,9.7548,-0.00042,0.00074,0.00221
1710000001.65,-0.0451,0.0273,9.779,0.00771,-0.00105,0.01079
1710000001.66,0.0466,0.0335,9.8104,0.0159,-0.00643,0.00234
1710000001.67,0.0192,-0.1333,9.8218,-0.00915,-0.0001,-0.02252
1710000001.68,-0.0078,-0.0033,9.7707,0.00195,-0.00741,-0.00244
1710000001.69,-0.002,0.1042,9.8055,0.00092,-0.00293,-0.00981
1710000001.7,-0.0327,0.0663,9.8544,-0.00277,0.00148,0.01247
1710000001.71,0.0223,-0.0924,9.7269,0.01011,-0.00854,0.0071
1710000001.72,-0.0227,-0.0157,9.8097,0.0228,-0.00105,0.01011
1710000001.73,-0.0613,-0.0601,9.7625,0.00366,0.00716,-0.00829
1710000001.74,-0.0639,0.0856,9.7574,-0.00781,-0.00891,-0.00869
1710000001.75,0.0086,0.0122,9.8231,-0.01426,0.00092,-0.01296
1710000001.76,0.079,-0.0384,9.7827,-0.00074,-0.01089,-0.00314
1710000001.77,0.008,0.0017,9.7492,0.00944,0.01629,-0.0009
1710000001.78,-0.0059,-0.1304,9.8762,-0.00208,0.00412,0.00978
1710000001.79,0.0143,-0.0542,9.856,0.00259,-0.01332,-0.00276
1710000001.8,0.0653,0.0018,9.7134,0.01954,0.01839,-0.00951
1710000001.81,0.011,0.0423,9.7363,0.00648,0.00362,0.00959
1710000001.82,-0.0205,-0.0971,9.8397,0.00057,-0.00874,-0.00965
1710000001.83,0.0553,-0.0191,9.7958,-0.01345,0.02445,0.01177
1710000001.84,0.0214,0.0505,9.885,0.00805,-0.00155,0.02636
1710000001.85,0.0768,-0.0726,9.8408,0.00558,-0.01611,-0.0048
1710000001.86,0.0092,0.0115,9.825,0.00826,0.0124,-0.02556
1710000001.87,-0.0612,0.0033,9.7589,-0.01253,0.00301,0.00201
1710000001.88,-0.0684,0.0857,9.8346,-0.00032,0.01364,0.00414
1710000001.89,0.0825,-0.0115,9.7462,0.0058,0.00129,-0.00038
1710000001.9,0.0862,-0.0086,9.8753,-0.01467,-0.00704,0.00929
1710000001.91,-0.009,0.0427,9.8311,0.00132,-0.01196,-0.0004
1710000001.92,-0.0192,-0.0663,9.7688,0.01086,-0.00777,-0.01007
1710000001.93,0.0731,-0.011,9.8502,-0.00642,-0.00697,-0.00912
1710000001.94,-0.0554,-0.0228,9.9221,0.01059,-0.01614,-0.00435
1710000001.95,-0.0447,-0.0069,9.7991,0.00027,-0.00768,-0.00257
1710000001.96,0.0322,0.0424,9.8375,0.00097,-0.00182,-0.00479
1710000001.97,-0.0197,0.0277,9.7884,0.00984,-0.003,-0.0007
1710000001.98,-0.0003,-0.0374,9.8143,-0.00683,-0.03213,-0.01141
1710000001.99,-0.0082,0.0068,9.7346,-0.01293,-0.01111,0.01784
1710000002.0,0.0169,0.0745,9.81,-0.00266,-0.0017,-0.00453
1710000002.01,0.0704,-0.0416,9.8122,0.00328,-0.00684,-0.01029
1710000002.02,0.0045,0.0073,9.8999,0.0035,0.00515,0.00274
1710000002.03,0.0322,-0.0097,9.7202,0.00316,-0.00587,-0.00541
1710000002.04,-0.1025,-0.0032,9.796,-0.00744,-0.00118,-0.00353
1710000002.05,-0.0024,-0.0815,9.8744,0.00475,0.00379,0.00235
1710000002.06,-0.0422,0.0705,9.7979,-0.00105,0.00966,0.00138
1710000002.07,-0.0609,-0.0387,9.8014,0.01527,0.00054,-0.01244
1710000002.08,-0.0439,0.0513,9.7683,0.00889,-0.01748,0.00664
1710000002.09,-0.0167,-0.0311,9.7634,0.00519,0.01378,-0.00125
1710000002.1,0.0458,-0.0313,9.7187,-0.00181,0.00991,-0.00552
1710000002.11,-0.0663,0.0607,9.7785,-0.00356,-0.01029,0.01521
1710000002.12,0.0015,0.0497,9.7605,-0.00227,0.00257,0.00524
1710000002.13,-0.0242,0.0104,9.8159,0.00275,-0.00938,-0.01051
1710000002.14,-0.0164,0.0381,9.7706,0.00979,-0.00524,-0.00573
1710000002.15,0.0501,-0.0144,9.786,-0.01466,0.00702,-0.00516
1710000002.16,0.0269,-0.0004,9.7874,-0.00501,0.00191,0.00917
1710000002.17,0.0669,-0.0331,9.8076,0.01247,0.00323,-0.00689
1710000002.18,-0.0077,0.0452,9.7836,-0.0057,0.00432,-0.00592
1710000002.19,-0.0348,-0.0347,9.7569,-0.00846,0.01401,-0.0107
1710000002.2,-0.0112,0.0743,9.8143,0.01068,0.00663,0.00759
1710000002.21,0.0121,-0.0158,9.8634,0.00502,0.00024,-0.00252
1710000002.22,0.0088,0.001,9.8164,0.00221,-0.00336,-0.01034
1710000002.23,-0.0542,0.0379,9.7795,0.0061,-0.00164,-0.01978
1710000002.24,0.0045,0.0012,9.8038,-0.00284,-0.00331,-0.00315
1710000002.25,0.0114,-0.0149,9.7075,0.00034,0.00084,-0.00809
1710000002.26,0.1259,-0.0015,9.803,0.00093,-0.01314,-0.00361
1710000002.27,0.0938,0.0447,9.79,-0.00325,0.00022,0.01131
1710000002.28,-0.0427,-0.0331,9.7633,-0.00331,0.01245,0.01496
1710000002.29,-0.0144,-0.0063,9.7724,-0.00878,0.0003,-0.00957
1710000002.3,-0.0732,0.0005,9.7895,-0.005,-0.00054,-0.0099
1710000002.31,-0.0295,0.0432,9.8596,-0.00439,-0.01716,0.00015
1710000002.32,0.0158,-0.005,9.8646,-0.01868,-0.01407,0.00622
1710000002.33,0.0603,0.0904,9.7636,0.00602,-0.01299,0.0083
1710000002.34,-0.0365,-0.0078,9.7841,0.00267,-0.00355,0.01628
1710000002.35,-0.0327,-0.0119,9.7854,0.01483,-0.00403,0.00124
1710000002.36,-0.1074,-0.0086,9.8505,-0.01318,-0.00511,-0.00136
1710000002.37,-0.0081,-0.0658,9.8173,-0.01014,0.00044,-0.00502
1710000002.38,-0.0531,-0.0518,9.8146,0.00935,0.01151,-0.00877
1710000002.39,-0.0265,-0.0265,9.8368,-0.0121,0.0063,0.00425
1710000002.4,-0.0438,0.0568,9.7802,-0.00048,0.01645,0.02098
1710000002.41,-0.0047,-0.0017,9.8782,-0.00246,-0.01619,0.0007
1710000002.42,-0.0879,-0.0242,9.8099,0.01531,0.0022,0.02018
1710000002.43,-0.0734,0.0613,9.7672,-0.00054,-0.00285,0.01266
1710000002.44,0.1065,0.0776,9.7985,-0.00057,0.00625,-0.02184
1710000002.45,-0.0644,0.0628,9.8716,0.00218,-0.00722,0.00668
1710000002.46,-0.0548,-0.0427,9.7887,-0.00863,0.00122,-0.02016
1710000002.47,0.0918,-0.0248,9.8575,-0.00511,-0.00478,0.00729
1710000002.48,0.1453,0.0907,9.7787,-0.01101,0.00419,-0.0053
1710000002.49,-0.0586,0.0121,9.7717,0.00647,0.01237,0.0008
1710000002.5,-0.0184,-0.0134,9.843,0.0069,-0.0202,-0.00804
1710000002.51,0.0171,0.0359,9.7663,-0.00847,-0.00407,0.00577
1710000002.52,0.0864,0.0504,9.8511,-0.00259,0.01711,0.0219
1710000002.53,-0.0493,-0.0286,9.8276,0.00158,0.00985,0.0248
1710000002.54,-0.0123,0.011,9.7663,-0.01387,0.00565,-0.0083
1710000002.55,0.0389,0.0463,9.8064,0.00533,-0.00864,-0.00072
1710000002.56,0.0217,-0.058,9.7826,-0.01071,-0.00747,0.01032
1710000002.57,-0.0188,0.0006,9.8274,-0.01693,0.00133,0.00178
1710000002.58,-0.0067,-0.0557,9.9044,0.00058,-0.00127,-0.00494
1710000002.59,-0.0687,-0.0492,9.7915,0.00604,-0.01162,0.00984
1710000002.6,-0.0119,-0.0282,9.8367,0.00898,-0.00483,-0.00404
1710000002.61,-0.0133,0.0239,9.8112,0.0046,0.02404,0.00394
1710000002.62,0.0116,-0.0161,9.8112,-0.00683,0.00409,0.00717
1710000002.63,-0.0278,-0.0324,9.8017,0.01848,-0.01549,0.00247
1710000002.64,0.0236,0.0026,9.7671,0.00063,0.01683,-0.00752
1710000002.65,0.0506,-0.0573,9.8268,-0.00927,-0.00598,0.00019
1710000002.66,0.0078,0.0214,9.7956,0.00967,0.01838,0.00683
1710000002.67,0.0176,0.0566,9.7648,0.0029,0.00946,-0.00261
1710000002.68,0.0027,-0.004,9.8607,0.02032,-0.0293,0.00315
1710000002.69,0.0,-0.0101,9.815,0.01547,-0.02087,0.00637
1710000002.7,-0.0361,0.0187,9.7986,-0.00397,-0.00027,0.00897
1710000002.71,0.0158,-0.1014,9.877,-0.01221,0.00455,-0.00077
1710000002.72,-0.0049,0.0268,9.7182,-0.00499,0.0061,-0.00745
1710000002.73,0.1047,0.1551,9.8736,-0.02315,0.01007,0.00402
1710000002.74,0.0787,-0.0061,9.766,0.00035,-0.0018,-0.00298
1710000002.75,0.0193,-0.006,9.8206,0.00982,-0.01481,-0.01097
1710000002.76,-0.0382,0.0372,9.7806,0.00024,-0.00389,-0.01446
1710000002.77,-0.0556,0.0823,9.7638,0.00479,-0.01932,0.00385
1710000002.78,0.0596,0.0487,9.8757,0.00772,-0.00354,-0.01367
1710000002.79,0.0131,-0.1078,9.9028,0.01494,0.01207,0.01396
1710000002.8,0.024,0.0282,9.7989,0.00166,0.0151,-0.00572
1710000002.81,-0.0872,0.1286,9.8268,-0.00218,-0.00486,-0.01647
1710000002.82,0.0464,0.0311,9.8128,-0.00571,0.00403,0.01574
1710000002.83,0.0227,-0.0577,9.8965,0.01603,-0.01393,-0.00154
1710000002.84,-0.0555,0.0141,9.7043,-0.00591,0.00935,0.00181
1710000002.85,-0.0236,-0.064,9.8289,0.01852,-0.00776,-0.00949
1710000002.86,0.0132,0.0616,9.7736,-0.0033,-0.00416,0.01168
1710000002.87,0.0026,-0.0478,9.6922,-0.00836,0.00657,-0.00214
1710000002.88,-0.0146,0.0037,9.792,0.00428,-0.00436,-0.02017
1710000002.89,-0.0052,-0.0429,9.9024,0.00246,0.00468,-0.00284
1710000002.9,-0.0126,-0.0273,9.7772,-0.01659,-0.00363,0.00624
1710000002.91,0.0076,0.0743,9.8495,0.00698,0.00416,-0.0079
1710000002.92,0.0736,0.0052,9.8699,-0.01841,-0.00011,-0.01455
1710000002.93,-0.1283,-0.028,9.8094,0.01814,0.01132,-0.00265
1710000002.94,-0.0118,-0.0573,9.816,-0.0142,-0.0077,0.01959
1710000002.95,0.0088,-0.0936,9.7242,0.00295,0.0075,0.01407
1710000002.96,0.0148,-0.0626,9.7742,0.00542,-0.00033,0.01284
1710000002.97,-0.0186,0.0056,9.8554,0.00963,0.0042,0.01035
1710000002.98,-0.0878,0.049,9.813,-0.01435,-0.00718,-0.00171
1710000002.99,0.0164,-0.028,9.8284,0.00522,0.01551,-0.00547
1710000003.0,0.0864,0.0785,9.8167,-0.0107,0.00506,0.00273
1710000003.01,-0.0767,-0.0359,9.9196,0.00251,-0.01269,0.0081
1710000003.02,0.0432,-0.0119,9.7885,-0.01937,0.00904,-0.01234
1710000003.03,-0.0164,-0.054,9.8903,0.00524,0.01951,-0.00208
1710000003.04,-0.0031,0.0495,9.8167,0.01307,-0.00967,0.01399
1710000003.05,-0.0526,0.1049,9.8947,-0.00284,-0.00962,0.00717
1710000003.06,-0.0167,-0.0881,9.7488,0.00093,0.0144,0.00991
1710000003.07,0.065,-0.0173,9.8192,0.00618,-0.00656,-0.02487
1710000003.08,0.0291,0.0632,9.7903,0.0034,0.00961,0.00269
1710000003.09,0.0866,-0.0723,9.817,-0.01599,0.0024,0.00113
1710000003.1,0.0589,0.0283,9.8711,-0.01221,-0.00458,-0.01198
1710000003.11,0.022,0.0611,9.8289,-0.00404,0.0005,0.00403
1710000003.12,0.0872,0.0039,9.871,0.00114,0.01116,0.01235
1710000003.13,0.0219,0.0275,9.7765,-0.00474,0.00437,-0.00279
1710000003.14,0.0414,0.088,9.7689,0.00097,-0.00968,0.00506
1710000003.15,-0.0148,0.0974,9.8108,0.01009,-0.00368,-0.00425
1710000003.16,0.0033,-0.0031,9.8081,-0.00361,0.0098,0.00354
1710000003.17,-0.0349,-0.0266,9.8007,-0.01103,0.01775,-0.01941
1710000003.18,0.0495,-0.046,9.7621,0.00498,0.00736,-0.00808
1710000003.19,-0.0589,0.0488,9.8699,0.01226,0.02407,-0.00751
1710000003.2,0.0391,-0.0686,9.7919,0.00287,-0.00219,-0.00229
1710000003.21,-0.0095,-0.0126,9.8813,-0.00467,0.00729,-0.01023
1710000003.22,0.0586,0.0051,9.8106,-0.00175,0.00318,0.00733
1710000003.23,0.0375,-0.0252,9.8424,-0.00481,0.01905,0.01246
1710000003.24,0.091,0.014,9.8379,0.00289,0.00056,0.00484
1710000003.25,0.0365,0.1282,9.7688,-0.02108,0.0115,0.00353
1710000003.26,-0.0786,-0.0061,9.8284,0.00096,-0.00075,0.0015
1710000003.27,-0.0033,-0.0218,9.9064,-0.00175,-0.00687,0.01202
1710000003.28,-0.0586,0.0508,9.8226,0.009,0.01766,-0.01198
1710000003.29,-0.0259,0.012,9.8551,-0.0142,-0.00122,-0.02185
1710000003.3,0.0756,0.072,9.8447,-0.01149,0.00194,-0.01273
1710000003.31,0.0319,0.0082,9.8254,0.00353,-0.00894,-0.00606
1710000003.32,-0.0349,-0.0124,9.8193,0.01302,0.00962,0.00152
1710000003.33,-0.0507,-0.0892,9.8374,-0.00144,-0.01262,0.00785
1710000003.34,0.0016,-0.081,9.8482,-0.00232,-0.01225,-0.00201
1710000003.35,-0.0608,-0.0918,9.7424,-0.00783,0.01189,-0.00808
1710000003.36,-0.0336,0.019,9.8224,0.00039,0.00071,-0.00112
1710000003.37,0.0156,-0.0681,9.8008,-0.00965,-0.00357,0.00941
1710000003.38,0.0578,0.0628,9.7904,-0.01328,-0.01127,-0.00202
1710000003.39,0.0304,0.0015,9.8748,0.00541,0.00553,-0.00543
1710000003.4,-0.1146,-0.0122,9.7733,-0.00871,0.00894,0.01008
1710000003.41,0.0152,-0.0422,9.7403,0.00667,0.00449,0.01962
1710000003.42,0.0036,0.0311,9.8498,-0.00063,-0.01746,0.00246
1710000003.43,0.0207,-0.0402,9.739,0.00978,0.01156,-0.00816
1710000003.44,0.0808,-0.0493,9.7136,-0.01084,0.00351,-0.00813
1710000003.45,-0.1032,0.0594,9.8554,0.00796,-0.00462,0.01629
1710000003.46,-0.0296,0.0177,9.8179,8e-05,0.0013,0.00743
1710000003.47,0.0295,-0.0117,9.8336,-0.01479,-0.01074,0.00427
1710000003.48,-0.0791,0.0321,9.7879,-0.0072,0.00625,0.00504
1710000003.49,0.0738,0.0004,9.7408,-0.0069,-0.00213,-0.00405
1710000003.5,0.0184,0.0192,9.7507,0.00393,0.00849,0.00818
1710000003.51,0.0423,-0.0408,9.7964,-0.00954,0.00455,0.01085
1710000003.52,-0.0285,0.1035,9.7464,-0.01233,0.00302,0.00184
1710000003.53,0.0407,-0.029,9.8254,-0.00404,0.00586,-0.00418
1710000003.54,0.0534,0.0778,9.7869,0.00923,0.00854,-0.00195
1710000003.55,0.0116,-0.0094,9.8193,0.00124,-0.01205,-0.00051
1710000003.56,0.0117,0.0404,9.8178,-0.00289,0.0102,0.01013
1710000003.57,0.0135,0.0367,9.8293,0.00586,-0.01766,0.00928
1710000003.58,-0.0432,0.0573,9.835,-0.00974,-0.00132,0.00271
1710000003.59,-0.0074,-0.042,9.7928,0.01789,0.01403,0.00381
1710000003.6,-0.0076,0.0538,9.8192,0.01662,0.00224,0.00061
1710000003.61,0.0192,0.0923,9.8218,-0.00473,-0.00244,-0.02552
1710000003.62,0.05,-0.0129,9.6886,0.00085,-0.00465,-0.00658
1710000003.63,-0.0529,0.0017,9.8423,-0.00121,-0.01106,-0.0018
1710000003.64,-0.0063,-0.0262,9.8175,-0.00536,0.01786,0.00104
1710000003.65,0.0741,-0.0173,9.8382,0.00903,-0.01487,-0.019
1710000003.66,-0.0372,0.0856,9.7457,-0.01477,-0.01174,0.01162
1710000003.67,-0.0411,-0.0502,9.7942,-0.00387,-0.01692,-0.01033
1710000003.68,0.0101,-0.0471,9.7554,0.00494,0.01601,0.00576
1710000003.69,0.0422,0.0805,9.8472,0.0154,-0.00251,-0.00325
1710000003.7,0.0006,0.0312,9.7397,0.01343,0.00673,0.00418
1710000003.71,0.0664,0.106,9.7636,-0.00705,0.00624,-0.01542
1710000003.72,0.0428,-0.0225,9.8367,-0.00804,0.00563,-0.00584
1710000003.73,0.0421,0.0063,9.7785,-0.00439,0.00148,0.01296
1710000003.74,0.0277,-0.033,9.7636,0.0141,0.00205,-0.00552
1710000003.75,0.1164,0.0072,9.8553,0.00383,0.01289,-0.01427
1710000003.76,-0.0103,-0.0887,9.8574,0.02825,0.00036,0.00191
1710000003.77,-0.1002,0.0342,9.8461,0.00609,-0.00644,-0.00068
1710000003.78,0.0802,0.0162,9.8524,0.01662,0.01269,-0.00568
1710000003.79,-0.0229,-0.0029,9.7984,-0.00116,0.00503,0.00783
1710000003.8,0.0054,-0.0195,9.7998,-0.00844,-0.02184,-0.00613
1710000003.81,0.0655,-0.0447,9.7776,0.0238,-0.00453,-0.00819
1710000003.82,-0.0801,0.0364,9.8184,-0.01343,-0.00199,0.00651
1710000003.83,-0.0626,-0.0586,9.7836,0.00254,0.01463,-0.00635
1710000003.84,-0.0801,0.0256,9.7883,0.00098,0.00065,-0.00818
1710000003.85,-0.0397,0.1037,9.84,-0.00613,-0.00718,0.02887
1710000003.86,0.022,0.0743,9.8692,0.00338,-0.01066,0.00904
1710000003.87,0.0262,-0.0753,9.8299,-0.00172,0.00035,0.01726
1710000003.88,0.0138,-0.0268,9.8997,-0.00891,0.0099,-0.00019
1710000003.89,-0.0706,0.0211,9.7747,-0.0131,0.01766,-0.00647
1710000003.9,-0.1155,-0.0035,9.7181,0.00418,-0.01349,-0.01207
1710000003.91,0.0027,-0.07,9.8457,-0.00806,0.00208,-0.00188
1710000003.92,-0.0236,0.0193,9.7714,-0.00545,-0.00406,-0.01956
1710000003.93,0.023,-0.0005,9.7963,-0.00848,-0.00104,-0.02133
1710000003.94,0.0351,0.0957,9.7215,-0.00821,-0.0074,-0.00475
1710000003.95,0.0069,-0.0127,9.765,-0.00173,-0.01454,-0.003
1710000003.96,0.038,0.0584,9.7349,-0.01268,0.00381,-0.00302
1710000003.97,0.0115,-0.0634,9.7883,-0.00339,-0.00373,0.00585
1710000003.98,0.0265,-0.0514,9.7903,0.00549,0.00799,-0.00672
1710000003.99,-0.0352,0.0361,9.8145,0.00583,0.00118,0.00552
1710000004.0,-0.009,0.0542,9.872,-0.00527,0.01644,0.00033
1710000004.01,0.0098,-0.0479,9.8438,-0.00758,0.01285,-0.00302
1710000004.02,0.041,0.0012,9.7289,0.01162,0.02039,-0.01194
1710000004.03,-0.0197,-0.0691,9.8404,0.0038,-0.0088,0.0216
1710000004.04,0.0261,-0.0091,9.8156,0.00489,0.01297,0.01634
1710000004.05,-0.0133,0.0418,9.8051,0.0123,0.00137,-0.00304
1710000004.06,-0.0059,-0.0217,9.8089,0.01022,0.00594,0.01145
1710000004.07,0.0415,-0.0125,9.8202,0.00858,0.0003,0.00569
1710000004.08,-0.0997,-0.0565,9.7754,-0.01793,0.00188,0.0098
1710000004.09,-0.0648,-0.0324,9.8009,-0.00595,-0.00356,-0.00634
1710000004.1,-0.0741,0.0879,9.8692,-0.01379,0.01302,0.0137
1710000004.11,-0.1167,0.0036,9.7748,0.01326,-0.00771,-0.01466
1710000004.12,-0.0339,-0.0501,9.7585,-0.00376,0.00048,-0.0203
1710000004.13,0.0375,-0.0157,9.8069,-0.00786,0.00719,-0.00271
1710000004.14,-0.0142,-0.0799,9.7535,0.00288,-0.00317,-0.00613
1710000004.15,0.0099,-0.0507,9.7239,0.00605,0.01019,0.00611
1710000004.16,0.0545,0.068,9.7928,0.00453,-0.00318,-0.01693
1710000004.17,0.0664,-0.0071,9.8824,-4e-05,-0.0016,0.00172
1710000004.18,-0.0035,0.0945,9.8081,0.01176,0.01273,-0.00647
1710000004.19,0.0677,-0.0048,9.8189,-0.00356,-0.00451,0.01515
1710000004.2,0.0046,-0.0018,9.7035,-0.01525,0.0107,-0.01559
1710000004.21,-0.0419,0.032,9.8319,-0.00416,0.00708,0.01476
1710000004.22,-0.0297,-0.1336,9.8147,-0.00455,0.02059,0.01171
1710000004.23,-0.074,0.0102,9.7768,0.00621,-0.00518,-0.00094
1710000004.24,-0.0444,-0.0024,9.819,0.00913,-0.00269,0.00511
1710000004.25,-0.0179,0.0743,9.8185,-0.00776,0.00312,0.00813
1710000004.26,0.0402,0.0482,9.757,-0.02163,-0.0026,-0.00057
1710000004.27,0.086,-0.0567,9.8266,0.01954,0.00478,0.00912
1710000004.28,-0.0691,0.0621,9.8699,0.00185,0.00199,-0.00472
1710000004.29,0.0196,-0.0131,9.7986,-0.02071,-0.01162,0.00928
1710000004.3,-0.052,-0.0452,9.7666,-0.01646,-0.00737,-0.0043
1710000004.31,0.0237,0.0099,9.8011,0.00217,0.01754,-0.00274
1710000004.32,-0.0066,-0.0101,9.8527,-0.00524,-0.00385,0.00825
1710000004.33,-0.0915,0.0769,9.7487,0.01232,0.00457,-0.01258
1710000004.34,0.0464,0.017,9.8389,-0.0052,-0.00591,0.01371
1710000004.35,-0.0303,0.0103,9.7761,-0.00082,-0.00722,-0.00241
1710000004.36,-0.0267,0.045,9.8221,-0.00607,0.01108,0.00504
1710000004.37,-0.0535,0.0546,9.7818,-0.00144,0.00292,0.00032
1710000004.38,-0.0327,0.0392,9.7816,0.00055,-0.00897,0.00565
1710000004.39,0.0214,0.071,9.8862,0.01334,0.00234,-0.00462
1710000004.4,-0.0095,0.0304,9.7395,0.00297,0.00429,0.00413
1710000004.41,0.0164,0.0084,9.8343,0.00081,0.01733,-0.00411
1710000004.42,0.0181,0.062,9.8966,0.00742,-0.02004,0.02699
1710000004.43,0.066,-0.0045,9.8443,0.01309,0.0112,-0.00747
1710000004.44,-0.0171,0.0017,9.7434,-0.01334,-0.00353,0.00872
1710000004.45,-0.0738,0.0861,9.7459,-0.00665,0.01984,-0.00971
1710000004.46,0.0534,0.0811,9.7724,0.00203,0.01671,-0.011
1710000004.47,-0.0166,-0.0004,9.8179,-3e-05,0.01852,0.00624
1710000004.48,0.0557,-0.0227,9.8213,-0.00615,-0.00381,-0.03234
1710000004.49,0.0192,0.0732,9.7464,-0.01958,-0.01238,-0.01248
1710000004.5,-0.0066,0.04,9.7664,-0.00285,0.0004,-0.01008
1710000004.51,0.0174,0.0158,9.7694,0.00374,-0.00848,0.00535
1710000004.52,0.0976,-0.0161,9.801,0.0144,-0.00031,-0.00328
1710000004.53,0.1038,0.0166,9.9092,0.00028,-0.01282,-0.01669
1710000004.54,0.0035,-0.0011,9.7633,7e-05,-0.00377,-0.00251
1710000004.55,0.008,-0.0332,9.7612,-0.00784,0.01448,-0.00183
1710000004.56,0.0538,0.0065,9.7533,2e-05,0.0027,0.00378
1710000004.57,-0.0423,0.0133,9.8418,-0.00498,-0.01037,-0.01804
1710000004.58,0.0167,-0.0188,9.8079,0.00564,0.00608,-0.00074
1710000004.59,-0.0013,0.0452,9.7652,0.00456,-0.00617,0.00103
1710000004.6,0.0157,0.0644,9.7919,0.01414,0.01201,0.00301
1710000004.61,-0.0417,0.0485,9.7704,0.00282,0.00989,0.00545
1710000004.62,-0.0795,-0.0138,9.8248,0.0054,0.00677,0.00369
1710000004.63,-0.1036,0.0378,9.9442,-0.01371,0.01762,0.00949
1710000004.64,-0.0559,0.0039,9.8375,0.00338,-0.00179,0.01181
1710000004.65,-0.0229,-0.0618,9.8054,0.00739,0.01993,-0.01324
1710000004.66,-0.0147,0.0336,9.7768,0.00115,0.00511,0.00254
1710000004.67,0.0969,0.0073,9.7428,-0.00044,0.00814,0.00634
1710000004.68,0.0553,0.1297,9.8467,-0.00178,-0.02145,-0.00457
1710000004.69,-0.0481,0.0729,9.844,0.01646,-0.00128,-0.0043
1710000004.7,0.0174,0.0356,9.7867,-0.01628,-0.0024,0.02381
1710000004.71,-0.0204,0.0125,9.8707,0.01256,-0.01119,-0.00246
1710000004.72,-0.0142,0.0082,9.8111,0.00403,-0.00925,0.0106
1710000004.73,0.0093,-0.0502,9.8487,-0.00489,0.01225,0.01166
1710000004.74,0.031,-0.0869,9.8248,0.00539,0.00664,0.01342
1710000004.75,-0.017,-0.0436,9.8011,0.00412,0.00711,0.01394
1710000004.76,0.0532,-0.0024,9.7623,-0.00989,0.02114,0.002
1710000004.77,-0.0571,-0.1053,9.8027,0.0106,0.0053,0.0009
1710000004.78,0.0003,-0.0272,9.8521,0.00208,0.01414,-0.0006
1710000004.79,0.1299,-0.0124,9.7846,-0.0078,0.00323,0.00247
1710000004.8,0.0112,-0.0108,9.832,0.01543,-0.00592,1e-05
1710000004.81,0.0717,-0.0331,9.7559,0.0061,0.00032,-0.0016
1710000004.82,0.0046,-0.0171,9.849,0.00394,0.00701,-0.01392
1710000004.83,0.029,0.0862,9.8256,0.01043,-0.01554,0.0072
1710000004.84,-0.0028,0.0331,9.7499,0.00033,0.00273,-0.00646
1710000004.85,-0.0085,-0.028,9.7988,0.00869,0.00508,0.00199
1710000004.86,-0.039,-0.0034,9.8566,0.00807,-0.00703,-0.00497
1710000004.87,0.0215,-0.0014,9.747,-0.0054,-0.01324,-0.01109
1710000004.88,-0.0426,-0.0384,9.7565,-0.00155,0.00555,-0.00825
1710000004.89,0.0333,-0.0385,9.8065,-0.00457,0.00126,0.01042
1710000004.9,0.0543,0.0505,9.9167,0.014,0.01206,-0.0146
1710000004.91,0.0183,-0.021,9.7764,-0.01474,0.00177,-0.00134
1710000004.92,-0.0143,-0.0547,9.8348,0.00356,-0.02165,0.00592
1710000004.93,0.0227,-0.0022,9.823,0.01372,0.00033,-0.00438
1710000004.94,-0.0154,0.0059,9.7805,-0.01212,0.00779,-0.00605
1710000004.95,0.0468,-0.0986,9.8181,0.00067,-0.01315,-0.00384
1710000004.96,-0.0916,-0.002,9.7876,0.01214,-0.01598,-0.00685
1710000004.97,-0.0168,0.0434,9.7921,-0.00356,0.00682,-0.01329
1710000004.98,-0.0995,0.0226,9.7269,0.00149,0.01118,-0.00125
1710000004.99,-0.0748,0.1115,9.8088,-0.00217,-0.00239,-0.0191
1710000005.0,0.0682,0.0626,9.855,-0.00946,0.00383,-0.00153
1710000005.01,0.0448,0.0724,9.8129,-0.00374,-0.00936,0.00865
1710000005.02,-0.036,0.14,9.8645,-0.00641,-0.00554,-0.00019
1710000005.03,-0.0751,0.0379,9.839,-0.01538,0.00466,0.00428
1710000005.04,-0.1482,0.0082,9.807,0.01447,0.00195,0.00018
1710000005.05,-0.0272,0.0487,9.7786,0.00448,0.00391,-0.00355
1710000005.06,0.121,-0.028,9.7857,-0.00382,0.00485,-0.00205
1710000005.07,0.0217,0.0054,9.7365,-0.00475,0.02347,0.01067
1710000005.08,-0.028,-0.0324,9.7966,-0.00422,-0.02876,0.00681
1710000005.09,0.0233,0.0199,9.8173,-0.00751,0.00648,0.00515
1710000005.1,-0.078,-0.0326,9.8958,-0.00388,-0.00548,0.01306
1710000005.11,-0.0149,-0.0343,9.8364,-0.00909,-0.00821,0.00964
1710000005.12,0.005,0.0207,9.7668,0.00702,0.00425,-0.00589
1710000005.13,-0.0043,-0.0069,9.738,-0.01861,0.00259,-0.00683
1710000005.14,0.0395,-0.0964,9.7997,0.00202,0.00798,0.00608
1710000005.15,0.0172,-0.0728,9.8506,-0.00884,0.00121,0.00321
1710000005.16,0.0334,-0.0574,9.799,0.00911,-0.00844,0.01014
1710000005.17,-0.0344,-0.0441,9.8371,-0.00172,-0.01235,0.00047
1710000005.18,0.0449,0.0207,9.8009,0.00354,-0.0058,0.00441
1710000005.19,0.0814,0.0109,9.8459,-0.00622,0.00707,0.01265
1710000005.2,-0.0485,0.0533,9.7301,0.013,0.00987,-0.0123
1710000005.21,-0.0444,0.0376,9.8902,-0.01243,-0.01749,-0.00364
1710000005.22,0.0668,0.0536,9.7544,-0.00665,-0.00251,0.01069
1710000005.23,-0.0096,0.0304,9.8497,-0.00983,-0.00317,-0.00042
1710000005.24,0.0702,0.0105,9.7964,-0.00068,0.00301,0.00266
1710000005.25,-0.0221,0.055,9.8042,0.0009,-0.00681,-0.00507
1710000005.26,0.0728,0.046,9.7979,-0.01263,-0.01503,0.00456
1710000005.27,0.0066,0.0188,9.8228,-0.01055,-0.0038,2e-05
1710000005.28,0.0129,0.0636,9.8329,-0.0111,0.01224,-0.00409
1710000005.29,0.0782,-0.1173,9.8629,-0.01465,-0.02131,0.00625
1710000005.3,-0.0181,-0.0145,9.8804,-0.00686,-0.0118,-0.00629
1710000005.31,-0.0471,-0.0153,9.8266,0.01737,-0.00124,0.00529
1710000005.32,-0.0224,0.0576,9.8957,0.0014,-0.00604,0.00418
1710000005.33,0.0226,0.0786,9.8146,-0.00663,-0.01155,0.003
1710000005.34,-0.0783,-0.0725,9.8639,-0.00269,-0.00711,0.00872
1710000005.35,0.0319,0.0706,9.8314,-0.01559,0.00316,0.02275
1710000005.36,-0.0269,-0.0586,9.7825,-0.01499,0.0024,-0.01143
1710000005.37,0.0574,-0.0571,9.8191,-0.00856,0.00861,-0.00763
1710000005.38,-0.1197,-0.0117,9.8352,-0.0127,0.00631,-0.00278
1710000005.39,-0.0393,-0.0159,9.8084,0.00857,-0.01382,-0.00542
1710000005.4,-0.0843,-0.0779,9.8306,0.01891,0.00537,-0.0131
1710000005.41,-0.0413,0.0325,9.8533,0.00863,0.00673,-0.00935
1710000005.42,0.0124,0.034,9.8088,-0.00792,-0.00503,0.01553
1710000005.43,-0.009,0.0527,9.6628,9e-05,0.01235,-0.00942
1710000005.44,-0.0127,-0.0217,9.8939,0.00513,-0.00633,0.00743
1710000005.45,-0.008,-0.002,9.7951,0.00398,0.01061,-0.00508
1710000005.46,0.0102,-0.0015,9.7688,0.01492,0.00594,0.00153
1710000005.47,-0.0504,0.0844,9.7538,-0.01198,-0.00176,-0.00413
1710000005.48,0.0353,-0.1417,9.7932,0.0015,-0.00994,-0.00566
1710000005.49,0.0331,-0.0478,9.7819,-0.00053,-0.00573,-0.00271
1710000005.5,0.0193,0.0003,9.7731,-0.00339,-0.0067,0.01309
1710000005.51,0.0278,-0.0543,9.7759,-0.01559,0.0181,-0.00108
1710000005.52,0.0148,-0.0129,9.8365,-0.01459,0.0108,-0.00069
1710000005.53,0.1018,-0.0063,9.9115,0.0129,0.01001,0.00295
1710000005.54,-0.0044,-0.0329,9.851,0.00853,0.00325,0.01565
1710000005.55,-0.0154,0.0032,9.8661,-0.01142,-0.00493,-0.0026
1710000005.56,-0.0377,0.0314,9.7911,-0.01808,0.00734,-0.0055
1710000005.57,-0.0516,-0.0118,9.8152,0.00028,-0.00926,-0.00585
1710000005.58,-0.0622,-0.0227,9.8313,-0.0008,0.01521,0.00311
1710000005.59,-0.0444,-0.0083,9.777,-0.01616,-0.01524,-0.00996
1710000005.6,-0.0035,-0.0004,9.7887,0.02056,-0.01069,-0.0116
1710000005.61,0.0167,-0.087,9.8527,0.0124,0.00631,-0.00467
1710000005.62,0.0026,0.0231,9.8645,-0.0108,-0.00303,0.00192
1710000005.63,-0.0383,-0.0226,9.8134,0.01312,0.01221,-0.00972
1710000005.64,0.045,0.0631,9.7502,0.00229,0.01237,0.01124
1710000005.65,0.037,0.0296,9.7952,0.00724,-0.02449,0.00687
1710000005.66,-0.008,0.0585,9.7379,-0.00843,-0.00843,0.00218
1710000005.67,-0.0326,-0.0506,9.8138,0.00619,-0.00865,0.00928
1710000005.68,0.0274,-0.0186,9.8228,0.02221,0.00883,0.00061
1710000005.69,0.0094,-0.0621,9.7965,0.0118,-0.01397,0.01705
1710000005.7,-0.0724,-0.0353,9.8221,0.00739,-0.02421,-0.01054
1710000005.71,-0.0034,0.0626,9.8308,-0.01853,-0.01034,-0.01747
1710000005.72,0.0131,0.0744,9.8228,0.00854,0.00541,-0.0131
1710000005.73,-0.045,-0.0574,9.7499,0.00459,0.01938,0.00253
1710000005.74,0.0095,-0.0229,9.7973,-0.00815,-0.01674,0.00768
1710000005.75,-0.0727,-0.0038,9.8305,-0.00324,-0.00883,0.00952
1710000005.76,0.0668,0.0293,9.8889,-0.00088,0.00129,0.01829
1710000005.77,0.0624,-0.088,9.7964,0.00536,0.01065,-0.00517
1710000005.78,-0.0126,-0.0802,9.8375,-0.01443,0.02061,0.00234
1710000005.79,0.0182,0.0245,9.8539,0.00052,0.00333,-0.02248
1710000005.8,-0.1205,-0.0975,9.8002,0.01549,0.00747,-0.01044
1710000005.81,-0.0578,-0.0223,9.8674,0.00534,0.00072,0.00926
1710000005.82,-0.0147,0.0081,9.8701,-0.01076,0.01451,-0.00315
1710000005.83,-0.0536,0.0208,9.879,0.00271,-0.00561,0.00017
1710000005.84,0.0357,-0.0071,9.8329,0.00483,7e-05,-0.00621
1710000005.85,0.0999,-0.0183,9.928,-0.02066,-0.022,-0.00609
1710000005.86,-0.0588,0.0422,9.7792,0.00305,0.00739,-0.00387
1710000005.87,-0.0419,0.0143,9.9162,0.00015,0.01596,0.01412
1710000005.88,0.0118,-0.0324,9.8484,-0.01569,0.00665,0.01512
1710000005.89,0.0806,0.0019,9.877,0.01913,-0.00758,-0.00611
1710000005.9,-0.0611,0.0192,9.794,0.0031,-0.01413,0.01027
1710000005.91,0.0125,0.0859,9.8522,-0.00206,0.01693,0.01322
1710000005.92,0.0911,0.0393,9.8813,-0.00861,-0.00987,-0.00328
1710000005.93,-0.0826,0.0607,9.7556,0.00111,-0.00336,-0.01542
1710000005.94,-0.0641,-0.0305,9.8018,0.00419,-0.01456,0.01295
1710000005.95,-0.0212,-0.0262,9.7029,0.01329,0.0046,-0.01211
1710000005.96,-0.026,-0.0118,9.8011,-0.00116,0.01801,-0.01561
1710000005.97,0.0406,-0.0072,9.7692,-0.0135,0.00122,0.00474
1710000005.98,0.0121,-0.0504,9.7991,-0.00079,0.01339,-0.0056
1710000005.99,-0.0887,0.0633,9.9562,-0.00088,-0.00913,0.01306
1710000006.0,0.0258,0.0442,9.8959,0.01641,-0.00093,-0.01215
1710000006.01,-0.0289,-0.0153,9.738,0.0029,0.00188,-0.00436
1710000006.02,0.0637,0.0321,9.8378,0.00383,-0.00802,-0.00128
1710000006.03,-0.0314,0.0111,9.8499,-0.00549,-0.00957,0.01189
1710000006.04,-0.0318,0.036,9.7931,0.00353,-0.00647,-0.00772
1710000006.05,0.0271,-0.0672,9.8189,-0.0084,-0.00255,-0.00272
1710000006.06,0.0381,-0.0073,9.8238,0.00164,-0.00523,-0.03147
1710000006.07,0.0224,-0.0029,9.7427,0.00793,0.01292,-0.00011
1710000006.08,-0.0843,0.0312,9.7584,-0.00013,-0.02155,-0.02276
1710000006.09,0.0269,-0.0314,9.8186,0.01103,0.001,0.01294
1710000006.1,-0.0517,-0.125,9.815,0.01391,-0.01571,0.00137
1710000006.11,0.0118,-0.0541,9.7746,0.01136,0.01016,0.0164
1710000006.12,-0.0712,-0.0031,9.7703,0.00061,-0.00777,-0.00585
1710000006.13,0.0223,0.0032,9.8055,-0.00933,-0.00053,0.00118
1710000006.14,-0.0403,0.0842,9.8543,-0.00996,0.01326,-0.01279
1710000006.15,-0.0641,0.0291,9.8062,0.00544,-0.01664,-0.00132
1710000006.16,0.0357,0.0041,9.8911,0.00268,0.01351,0.00252
1710000006.17,0.0121,-0.0016,9.7752,-0.00058,0.00496,-0.00238
1710000006.18,-0.0307,0.0552,9.8197,-0.00531,-0.00454,0.00751
1710000006.19,0.0726,-0.0295,9.7923,0.00013,-0.02368,-0.01014
1710000006.2,-0.022,-0.007,9.8394,-0.01378,0.01875,0.02041
1710000006.21,0.0016,-0.0545,9.7709,-0.00644,-0.00346,0.00361
1710000006.22,0.0134,0.0709,9.9064,-0.00203,0.0063,-0.01384
1710000006.23,-0.031,0.0196,9.7255,0.00701,0.00155,-0.00028
1710000006.24,0.0236,-0.0354,9.8958,0.00974,0.02072,-0.00595
1710000006.25,-0.0267,-0.0057,9.8145,-0.01943,-0.01084,0.0051
1710000006.26,-0.0206,0.0255,9.8376,-0.01589,0.01048,-0.01688
1710000006.27,0.0681,-0.0125,9.8767,0.00715,0.01846,-0.00086
1710000006.28,-0.052,-0.0267,9.8529,0.00103,-0.01191,0.01843
1710000006.29,-0.1206,-0.0327,9.7735,0.00628,-0.00203,0.00325
1710000006.3,0.0805,0.0169,9.84,-0.00622,0.00343,-0.01867
1710000006.31,0.1275,-0.0179,9.9034,-0.00567,0.0073,0.00176
1710000006.32,-0.0203,-0.0227,9.7656,-0.00737,0.00572,-0.00228
1710000006.33,-0.0968,-0.0668,9.9159,-0.02678,0.01063,0.00789
1710000006.34,-0.0155,0.0039,9.8293,-0.0112,0.00013,0.00439
1710000006.35,-0.0143,-0.0091,9.7883,-0.01067,0.00401,0.00385
1710000006.36,-0.0095,-0.0161,9.7653,-0.00927,-0.01217,-0.00469
1710000006.37,-0.0557,0.0099,9.7988,-0.00973,-0.0102,-0.0188
1710000006.38,0.029,0.0374,9.7122,-0.00919,-0.00093,0.0022
1710000006.39,0.0262,0.0351,9.7892,-0.00236,-0.00351,-0.01091
1710000006.4,-0.0747,0.0276,9.7969,0.0055,0.00677,0.00838
1710000006.41,0.035,-0.012,9.7563,-0.02875,-0.0186,-0.01002
1710000006.42,0.1026,-0.0283,9.8474,-0.0094,0.00468,0.02756
1710000006.43,0.0086,-0.0522,9.7991,-0.00903,0.00761,-0.01109
1710000006.44,-0.0169,-0.0297,9.7782,-0.01533,-0.02216,0.00267
1710000006.45,-0.0071,0.001,9.7937,0.01107,0.01672,-0.02029
1710000006.46,0.0308,-0.0393,9.8278,-0.01111,0.01964,0.01909
1710000006.47,-0.0865,0.0048,9.8137,0.00412,0.01103,-0.00944
1710000006.48,0.0082,-0.0483,9.775,-0.00792,-0.00222,0.00304
1710000006.49,-0.0195,-0.083,9.8163,0.01265,-0.00281,0.0051
1710000006.5,0.0924,0.041,9.8075,-0.0085,-0.00583,0.00813
1710000006.51,-0.0087,-0.0237,9.753,-0.00921,-7e-05,0.00529
1710000006.52,0.0834,-0.0419,9.7956,-0.00186,-0.00454,-0.00159
1710000006.53,-0.0552,-0.0547,9.839,0.01496,0.00342,0.00874
1710000006.54,0.0294,0.0212,9.8386,0.00488,0.00035,0.00066
1710000006.55,0.016,0.0687,9.7985,-0.00668,0.006,-0.01679
1710000006.56,-0.0435,-0.0202,9.8438,0.00173,-0.00381,-0.0091
1710000006.57,0.0089,-0.0108,9.761,-0.00579,-0.0102,0.0107
1710000006.58,0.0606,0.0536,9.7626,0.01479,0.01183,0.00803
1710000006.59,-0.0162,-0.0905,9.7974,0.00774,-0.01001,-0.01629
1710000006.6,-0.0846,0.0983,9.8849,-0.00041,-0.00176,-0.00466
1710000006.61,-0.0009,0.1222,9.8182,0.00186,-0.00161,-0.01084
1710000006.62,-0.0451,-0.1353,9.7962,-0.0064,0.001,-0.00116
1710000006.63,-0.0171,-0.0049,9.8872,-2e-05,-0.00123,-0.00308
1710000006.64,-0.0041,-0.0359,9.7957,0.00574,-0.00354,0.00088
1710000006.65,-0.0853,-0.0132,9.9217,0.00885,0.00198,0.00984
1710000006.66,-0.0808,-0.0209,9.7844,-0.00431,-0.00937,0.00034
1710000006.67,0.0241,0.0406,9.7594,-0.02152,-0.00216,-0.00547
1710000006.68,-0.0261,-0.0056,9.8017,0.00693,0.00083,0.00702
1710000006.69,-0.1282,-0.0455,9.7975,-0.0063,-0.01782,0.00246
1710000006.7,0.0392,-0.0086,9.7696,0.0084,0.01284,-0.00758
1710000006.71,0.0136,0.0257,9.9401,-0.01526,0.0208,-0.00861
1710000006.72,-0.0357,-0.0592,9.8259,0.00322,0.00616,-0.00157
1710000006.73,-0.0658,-0.0823,9.8332,-0.00207,-0.00384,-0.0075
1710000006.74,0.0418,0.0996,9.7869,-0.00449,-0.00336,-0.0109
1710000006.75,0.0175,-0.0321,9.7811,0.01451,-0.0104,0.0082
1710000006.76,0.1191,-0.0069,9.8613,-0.0073,0.0156,0.01518
1710000006.77,0.021,-0.0199,9.7262,0.01358,-0.01339,0.01783
1710000006.78,0.0194,0.0274,9.7529,0.02172,0.00936,-0.00103
1710000006.79,-0.0083,0.0886,9.7976,-0.01262,-0.00468,0.00425
1710000006.8,0.0408,0.029,9.8776,-0.00912,0.01343,-0.00601
1710000006.81,0.0313,-0.0759,9.7913,-0.00163,0.00663,-0.00135
1710000006.82,0.0626,-0.0692,9.8308,-0.00227,0.00886,-0.00901
1710000006.83,-0.0261,-0.0199,9.8114,0.01104,0.00173,0.01036
1710000006.84,-0.0218,-0.0134,9.8748,0.01102,0.01661,-0.00236
1710000006.85,-0.024,-0.0861,9.7308,-0.00491,-0.01622,0.00924
1710000006.86,0.0395,0.041,9.8468,-0.00785,-0.01734,0.00805
1710000006.87,0.0749,-0.0543,9.8001,-0.00331,-0.01538,0.00286
1710000006.88,-0.0229,0.0747,9.8562,0.00217,-0.00467,0.00335
1710000006.89,-0.0212,0.091,9.769,-0.01148,-0.00722,-0.00933
1710000006.9,0.0157,-0.0124,9.8112,-0.01259,-0.00539,-0.00975
1710000006.91,-0.0123,0.0219,9.8049,-0.00753,0.01657,-0.01959
1710000006.92,0.0476,-0.0616,9.7599,-0.00457,-0.00613,-0.00815
1710000006.93,-0.1126,0.0312,9.746,-0.00374,0.00919,-0.00856
1710000006.94,-0.0413,-0.0249,9.781,-0.02007,0.00082,0.00799
1710000006.95,-0.0391,-0.0544,9.8165,-0.00428,0.01096,0.00845
1710000006.96,-0.116,-0.0145,9.7722,-0.01307,0.00373,-0.00105
1710000006.97,-0.0482,-0.0233,9.7935,0.00066,0.00361,0.00431
1710000006.98,-0.0458,-0.0163,9.7157,-0.01265,-0.0028,-0.01025
1710000006.99,-0.0101,0.0475,9.7915,0.00324,-0.00922,-0.00294
1710000007.0,0.0556,-0.0393,9.8612,-0.00175,-0.01579,-0.01563
1710000007.01,-0.0123,0.0868,9.8453,0.0142,0.0062,-0.00254
1710000007.02,-0.0515,-0.0663,9.8057,0.00284,0.0188,-0.00186
1710000007.03,-0.0028,0.0808,9.8222,-0.00197,-0.00546,-0.01264
1710000007.04,0.0525,-0.0508,9.7686,-0.00056,-0.00019,0.00656
1710000007.05,-0.0488,-0.0001,9.8912,0.0005,-0.01029,-0.00705
1710000007.06,-0.0455,-0.0245,9.9134,-0.00597,-0.00131,-0.02014
1710000007.07,0.0279,-0.0172,9.8182,-0.00258,-0.0034,-0.00935
1710000007.08,-0.0111,0.0401,9.9395,-0.00512,-0.00677,0.00592
1710000007.09,0.0324,0.075,9.776,-0.00361,-0.01014,-0.01658
1710000007.1,-0.0007,0.0595,9.7474,-0.00461,0.01017,0.00101
1710000007.11,0.0351,-0.0202,9.7745,-0.00374,0.0102,-0.00881
1710000007.12,-0.0518,0.0092,9.799,-0.00049,0.01409,-0.00773
1710000007.13,-0.0006,-0.0391,9.9256,0.00551,0.00838,-0.00866
1710000007.14,-0.0105,-0.0496,9.7959,0.00913,-0.00894,-0.00564
1710000007.15,-0.0608,-0.0573,9.767,-0.00632,-0.00623,-0.00628
1710000007.16,-0.0782,-0.0219,9.7651,-0.01418,0.0034,0.00815
1710000007.17,0.0343,0.0125,9.867,0.00777,-0.00796,0.00662
1710000007.18,-0.0175,-0.0956,9.8599,0.02154,0.01493,0.00818
1710000007.19,-0.0511,-0.0023,9.7857,0.00522,-0.00018,-3e-05
1710000007.2,-0.0048,0.0758,9.7162,-0.00341,-0.00907,-0.00175
1710000007.21,0.0564,0.0561,9.7536,0.00217,0.00649,0.00128
1710000007.22,-0.114,-0.0293,9.8961,0.00149,0.00791,0.00455
1710000007.23,-0.0748,-0.0698,9.8444,-0.00044,0.00446,-0.00011
1710000007.24,-0.0461,0.023,9.8133,-0.00905,0.00845,-0.00108
1710000007.25,0.0731,-0.1159,9.9034,0.00982,0.00384,0.01035
1710000007.26,0.0141,0.0555,9.9079,-0.00799,0.01601,-0.00037
1710000007.27,0.0384,-0.0107,9.8082,0.00955,0.01061,0.00172
1710000007.28,-0.057,0.0916,9.8091,0.00534,-0.0065,0.01008
1710000007.29,-0.056,-0.0863,9.7809,0.01411,-0.00692,0.01904
1710000007.3,0.0224,0.0459,9.7958,0.00714,-0.0012,-0.0075
1710000007.31,0.0029,-0.005,9.7357,-0.02329,-0.00014,-0.0027
1710000007.32,0.0274,-0.0166,9.7355,-0.01415,-0.0068,0.00859
1710000007.33,-0.0094,-0.0685,9.7239,0.00059,-0.00989,0.00408
1710000007.34,0.0139,0.0298,9.8642,0.0167,-0.00224,-0.00277
1710000007.35,0.0079,0.0338,9.7319,-0.00403,-0.00664,0.02302
1710000007.36,0.0389,0.0893,9.9075,-0.01382,0.00056,0.00853
1710000007.37,0.0404,0.0504,9.7735,0.00789,-0.02296,-0.00577
1710000007.38,-0.081,-0.0297,9.8969,0.01628,0.01084,-0.00809
1710000007.39,-0.1124,-0.0502,9.7917,-0.00802,-0.00333,0.00247
1710000007.4,0.0501,-0.0684,9.7317,-0.00537,0.00314,0.00379
1710000007.41,0.0594,0.0737,9.8742,0.01629,-0.02392,-0.00219
1710000007.42,-0.051,-0.0389,9.8801,-0.01283,0.0008,0.00053
1710000007.43,-0.093,0.074,9.7647,-0.01073,-0.00146,0.00372
1710000007.44,0.005,0.0263,9.7934,-0.01088,-0.00058,-0.00112
1710000007.45,0.0465,0.0165,9.7647,0.00162,0.0019,9e-05
1710000007.46,0.0899,-0.0153,9.804,-0.0029,-0.00564,-0.01018
1710000007.47,0.0258,0.033,9.8154,-0.00608,0.00373,0.01223
1710000007.48,-0.0186,-0.0008,9.7924,0.0087,-0.02684,-0.00924
1710000007.49,-0.0447,-0.0185,9.7191,0.00815,0.00271,0.01393
1710000007.5,0.0006,0.0348,9.781,0.01442,0.00182,0.01221
1710000007.51,-0.015,-0.0072,9.8452,0.00053,0.01542,-0.00373
1710000007.52,-0.0508,-0.0399,9.7996,0.00768,0.00278,0.01439
1710000007.53,0.1024,0.03,9.7936,-0.01149,-0.02316,0.00327
1710000007.54,0.0893,-0.0032,9.7635,0.00716,-0.0047,-0.0062
1710000007.55,0.0568,0.0244,9.7795,0.00764,-0.0046,0.00516
1710000007.56,-0.046,-0.0227,9.8804,-0.00796,-0.001,-0.00548
1710000007.57,0.0428,-0.0605,9.753,0.00599,-0.00343,-0.00378
1710000007.58,0.032,0.0868,9.846,0.00239,0.0007,-0.00368
1710000007.59,0.0221,0.0773,9.8124,0.00457,-0.00954,0.00457
1710000007.6,0.0625,0.0442,9.8222,0.00944,0.01594,0.00258
1710000007.61,0.0318,-0.0194,9.7734,0.00172,-0.0012,0.01065
1710000007.62,0.037,-0.015,9.7924,0.01156,0.02175,0.01511
1710000007.63,0.0318,0.0691,9.8097,-0.01118,-0.01349,0.00477
1710000007.64,0.017,-0.0177,9.784,-0.00866,-0.00423,0.01109
1710000007.65,-0.0892,-0.0316,9.8266,-0.00164,0.00739,0.00163
1710000007.66,0.0042,0.0936,9.8329,-0.00773,-0.01486,-0.0059
1710000007.67,-0.0278,-0.0024,9.9186,0.00257,0.01211,0.00038
1710000007.68,-0.064,0.0884,9.8239,-0.00339,0.00147,0.00333
1710000007.69,0.0841,-0.0699,9.7144,-0.00301,0.00132,0.01511
1710000007.7,0.0864,0.0259,9.8682,-0.0033,0.01312,-0.0081
1710000007.71,0.068,0.1036,9.7998,0.00237,-0.00459,-0.00109
1710000007.72,0.0128,0.0015,9.9106,-8e-05,-0.00565,0.00199
1710000007.73,0.0675,-0.0132,9.8835,0.00365,-0.00409,0.0074
1710000007.74,0.0006,-0.0584,9.7847,-0.00391,-0.00311,-0.00218
1710000007.75,0.0101,0.0541,9.8461,-0.01848,-0.01251,-0.00461
1710000007.76,-0.0547,-0.0385,9.7803,0.00738,0.00384,-0.00863
1710000007.77,0.0198,-0.0047,9.8101,-0.00782,-0.00354,-0.00567
1710000007.78,0.003,-0.0617,9.8438,0.00279,-0.00193,0.02163
1710000007.79,-0.0651,0.0778,9.8657,-4e-05,-0.00171,-0.00146
1710000007.8,-0.0026,0.0577,9.8548,0.0221,0.00805,0.01561
1710000007.81,-0.004,-0.0016,9.8137,-0.02683,0.00311,0.00296
1710000007.82,0.0899,-0.0577,9.9342,-0.00659,0.0047,-0.00452
1710000007.83,0.0447,0.0768,9.7917,0.00373,-0.00168,0.01475
1710000007.84,0.0006,-0.0183,9.7296,-0.01606,0.0049,0.01022
1710000007.85,0.0124,-0.0553,9.7393,-0.00046,0.01969,-0.00035
1710000007.86,0.0022,-0.0881,9.8837,-0.01679,0.01178,-0.01079
1710000007.87,-0.0101,-0.0323,9.8062,-0.00012,-0.0094,0.00338
1710000007.88,-0.0541,-0.0727,9.818,0.00034,0.01142,0.01236
1710000007.89,-0.0076,-0.0311,9.7829,0.00707,0.00461,0.01075
1710000007.9,-0.0373,0.0372,9.7874,0.00269,0.00024,0.00218
1710000007.91,-0.0625,-0.0188,9.7706,-0.00972,0.00814,0.00984
1710000007.92,0.0256,0.0178,9.8336,0.00053,0.00667,-0.00549
1710000007.93,0.0196,-0.0362,9.8051,0.00314,0.00206,0.00805
1710000007.94,-0.0893,0.0033,9.8318,-0.00914,-0.00357,0.0038
1710000007.95,-0.0061,0.096,9.827,0.00968,-0.00744,0.00129
1710000007.96,0.0498,-0.0174,9.7887,0.00558,0.00833,0.02221
1710000007.97,0.053,0.0192,9.7371,-0.01633,0.0035,0.00352
1710000007.98,0.0513,-0.0783,9.7327,0.00016,-0.00262,-0.01517
1710000007.99,0.0019,0.076,9.9613,-0.01037,-0.00019,0.00851
1710000008.0,-0.0423,-0.0239,9.8839,-0.01991,-0.00368,0.02698
1710000008.01,-0.0542,0.0525,9.877,-0.0058,-0.01017,-0.00999
1710000008.02,0.0172,-0.0062,9.7763,-0.00384,0.01233,0.00291
1710000008.03,0.019,0.0306,9.8105,0.0212,0.00136,-0.00038
1710000008.04,0.0644,0.0336,9.7692,-0.00552,-0.01888,0.00609
1710000008.05,0.055,-0.0226,9.7444,0.00031,0.00758,-0.00405
1710000008.06,-0.0066,0.0546,9.7806,0.00295,0.00308,0.00361
1710000008.07,-0.0622,-0.0379,9.8763,-0.00375,0.00559,-0.01226
1710000008.08,-0.016,0.0389,9.852,0.0026,0.01074,0.01153
1710000008.09,0.0109,-0.0195,9.7615,-0.00729,-0.0015,-0.00266
1710000008.1,-0.0101,0.0175,9.7943,-0.01114,0.00151,0.02137
1710000008.11,-0.0289,-0.0231,9.8475,-0.006,-0.01318,0.01221
1710000008.12,0.0126,0.0025,9.7815,-0.01298,-0.00524,-0.00418
1710000008.13,-0.0252,-0.0537,9.814,0.00581,0.0094,0.01076
1710000008.14,-0.0314,0.0124,9.8301,-0.00096,-0.00036,0.01205
1710000008.15,0.0156,0.0022,9.8295,-0.00517,-0.00374,-0.01006
1710000008.16,-0.0201,-0.027,9.8227,0.00552,0.00271,-0.00795
1710000008.17,0.0122,-0.0028,9.7773,-0.00627,-0.00899,-0.00482
1710000008.18,0.0137,0.0067,9.7825,-0.03027,-0.00554,-0.02081
1710000008.19,-0.057,-0.0308,9.7533,-0.0057,0.00793,0.00364
1710000008.2,-0.0241,-0.0064,9.7319,0.00724,-0.01709,0.01186
1710000008.21,0.0719,-0.0503,9.8043,0.00966,-0.00513,0.00392
1710000008.22,-0.0581,0.1173,9.8508,-0.01264,0.00109,0.00803
1710000008.23,-0.1058,0.053,9.741,-0.00626,0.00398,0.00318
1710000008.24,-0.0931,0.0137,9.8236,0.0069,-0.00843,0.00404
1710000008.25,0.0015,0.0586,9.8492,-0.0153,0.00498,-0.0204
1710000008.26,0.0015,-0.099,9.7182,-0.0035,0.00043,0.0083
1710000008.27,-0.0059,-0.1279,9.7965,0.00271,0.01247,0.00222
1710000008.28,0.0607,-0.02,9.8923,0.01361,0.00649,-0.00012
1710000008.29,-0.1336,-0.0689,9.8376,-0.00503,-0.0024,-0.00618
1710000008.3,0.0198,-0.0118,9.7165,-0.0145,0.01101,-0.00899
1710000008.31,0.0781,0.0103,9.8429,-0.00826,0.00042,0.00016
1710000008.32,-0.0564,0.046,9.7726,0.0235,0.00421,0.00327
1710000008.33,-0.019,-0.0569,9.8446,0.00269,-0.00561,-0.00894
1710000008.34,-0.0376,0.02,9.7755,0.01176,-0.00925,0.01207
1710000008.35,-0.0447,0.0007,9.8073,-0.00055,-0.01507,-0.00711
1710000008.36,-0.0163,0.0174,9.7831,-0.00839,-0.00546,0.00058
1710000008.37,0.0714,-0.026,9.8102,-0.01113,2e-05,0.00798
1710000008.38,0.0919,0.0692,9.7816,-0.00508,-0.00597,-0.00926
1710000008.39,-0.0168,-0.0052,9.7988,0.00678,0.00255,-0.02044
1710000008.4,0.0953,0.0887,9.7512,-0.01353,-0.0018,-0.0032
1710000008.41,0.0018,-0.0395,9.8345,0.00679,4e-05,0.00162
1710000008.42,0.0877,0.0371,9.8188,-0.01203,0.01198,0.01
1710000008.43,-0.0047,-0.003,9.7292,-0.00348,0.01461,-0.00207
1710000008.44,0.0066,-0.0164,9.8596,-0.00104,-0.01469,0.00388
1710000008.45,0.0183,0.0316,9.8012,0.0056,-0.01121,0.01501
1710000008.46,0.1589,-0.015,9.8181,-0.00339,0.00168,-0.0078
1710000008.47,0.0426,-0.1331,9.8482,0.00479,-0.00386,0.00481
1710000008.48,-0.0354,-0.1531,9.8264,-0.00361,-0.01479,0.01177
1710000008.49,0.0484,0.0636,9.8683,0.00341,0.00387,-0.00781
1710000008.5,-0.0181,0.0615,9.7953,-0.0007,-0.01102,-0.00632
1710000008.51,-0.0245,0.0944,9.8617,0.00148,0.00662,0.00233
1710000008.52,0.0454,-0.0009,9.8161,0.00134,0.00966,-0.01088
1710000008.53,0.0016,-0.0646,9.8354,-0.00149,0.01135,-0.01217
1710000008.54,0.0139,-0.021,9.8302,0.01117,-0.00715,-0.0039
1710000008.55,0.0007,0.0006,9.872,0.00545,0.00027,-0.00937
1710000008.56,0.0168,-0.0504,9.8461,0.00124,0.01108,-0.00454
1710000008.57,0.0212,0.0824,9.7879,-0.00591,-0.02096,1e-05
1710000008.58,-0.0968,0.112,9.7779,0.02371,-0.01123,0.01428
1710000008.59,0.0333,0.0239,9.8075,0.01492,0.00534,0.00525
1710000008.6,-0.0491,-0.0005,9.772,-0.01043,0.01521,0.00174
1710000008.61,-0.0721,-0.0647,9.7574,0.0056,-0.02451,-0.01351
1710000008.62,-0.0029,0.0773,9.7036,0.01203,-0.01156,-0.01823
1710000008.63,0.0042,0.0038,9.7325,0.00453,-0.00345,-0.00432
1710000008.64,-0.0347,-0.0145,9.9093,-0.00048,0.00113,0.00702
1710000008.65,0.0416,0.0241,9.7772,-0.00655,0.01894,0.0181
1710000008.66,-0.0671,-0.0293,9.9052,0.00433,0.00987,0.00253
1710000008.67,-0.0203,0.0073,9.8302,-0.00945,0.00456,0.01559
1710000008.68,-0.0292,-0.0721,9.8075,-0.00418,-0.01415,-0.00883
1710000008.69,-0.0023,0.0544,9.735,-0.00561,6e-05,0.00205
1710000008.7,0.0139,-0.0052,9.8102,0.00474,0.00824,-0.01451
1710000008.71,-0.0504,0.0579,9.9046,0.01324,-0.01118,-0.00605
1710000008.72,0.0362,-0.0101,9.8879,-0.00519,-0.00408,0.01205
1710000008.73,0.0032,-0.0068,9.8237,-0.00422,-0.00144,-0.00501
1710000008.74,-0.0946,-0.0606,9.7526,0.01254,-0.00676,-0.00831
1710000008.75,-0.0979,0.038,9.7621,-0.00573,0.00714,-0.01012
1710000008.76,-0.0006,-0.0438,9.7674,-0.02859,0.00871,0.00837
1710000008.77,-0.011,-0.0243,9.8739,0.01817,-0.00833,0.00683
1710000008.78,-0.0052,0.0001,9.8916,0.00968,-0.01056,0.00014
1710000008.79,-0.0014,0.0061,9.8198,0.00766,-0.00072,0.00044
1710000008.8,0.0113,-0.0853,9.7948,0.00336,0.00348,-0.01442
1710000008.81,0.0474,-0.0115,9.8874,-0.00118,0.01892,-0.00769
1710000008.82,-0.0556,0.0398,9.7611,-0.01906,0.0002,0.00778
1710000008.83,-0.0586,-0.0189,9.8126,-0.00255,-0.00368,0.00166
1710000008.84,-0.0547,-0.0112,9.8331,-0.00278,-0.00782,0.00113
1710000008.85,0.0144,0.0081,9.7669,-0.00171,0.00174,0.00654
1710000008.86,0.0622,-0.0063,9.7782,0.00536,-0.00266,-0.00424
1710000008.87,-0.0216,-0.0515,9.7743,0.01468,0.0078,0.01566
1710000008.88,-0.1251,-0.0018,9.8808,-0.00117,0.00212,-0.01436
1710000008.89,-0.0852,0.0497,9.9057,-0.00247,-0.00095,0.00799
1710000008.9,-0.0417,-0.0526,9.8157,0.01464,-0.00935,0.00617
1710000008.91,-0.0279,-0.0187,9.7966,-0.00835,0.00436,0.00341
1710000008.92,-0.0204,-0.0691,9.78,-0.00073,-0.00153,-0.02406
1710000008.93,0.0019,0.0471,9.8101,-0.00013,0.00687,0.00433
1710000008.94,-0.0156,-0.0046,9.7825,-0.00834,-0.01436,-0.00604
1710000008.95,0.0525,-0.0425,9.8051,-0.00382,0.00304,0.01423
1710000008.96,-0.0338,0.0046,9.8307,-0.00369,0.00763,-0.00931
1710000008.97,-0.0431,-0.0602,9.7897,0.00735,0.00047,0.00687
1710000008.98,0.0239,-0.0517,9.8005,-0.00331,0.00837,-0.00556
1710000008.99,-0.0768,-0.073,9.8007,-0.00303,0.00415,-0.01659
1710000009.0,0.0195,-0.0533,9.7941,0.00432,-0.00616,-0.00133
1710000009.01,0.0051,0.0679,9.7879,-0.00528,-0.01154,0.00618
1710000009.02,-0.0074,-0.0367,9.8481,-0.00949,0.00984,-0.00224
1710000009.03,0.0794,0.0233,9.7215,0.02613,-0.00569,0.00055
1710000009.04,-0.0311,-0.0418,9.8887,-0.00094,-0.00125,0.00328
1710000009.05,0.103,0.038,9.8168,0.00187,-0.00531,0.00605
1710000009.06,-0.0113,-0.0513,9.8405,-0.00308,0.01059,-0.00919
1710000009.07,-0.0639,0.002,9.8463,-0.01543,-0.02268,0.01616
1710000009.08,0.0035,0.0026,9.7746,-0.00556,0.0089,-0.00649
1710000009.09,-0.0538,0.1164,9.7643,-0.01154,-0.00537,0.00409
1710000009.1,-0.0376,0.0315,9.7584,0.00506,0.02108,0.01394
1710000009.11,0.0199,-0.0296,9.7976,0.00377,0.00916,-0.00849
1710000009.12,0.0278,0.0343,9.845,0.00542,-0.00806,0.00407
1710000009.13,-0.0311,0.1069,9.7808,-0.01023,0.01562,-0.00646
1710000009.14,0.0494,-0.0815,9.8404,-0.02037,-0.00638,-0.01106
1710000009.15,0.0579,-0.0421,9.6916,-0.0231,0.00588,0.01361
1710000009.16,0.0718,-0.0118,9.7907,0.00361,0.00451,0.0003
1710000009.17,0.0265,-0.0209,9.8684,-0.00435,0.02187,-0.0021
1710000009.18,0.0682,-0.0166,9.8015,-0.01318,-0.00947,-0.00375
1710000009.19,-0.094,-0.0652,9.7685,0.0051,-0.02392,-0.00391
1710000009.2,-0.0159,0.0702,9.7772,0.0083,-0.01172,-0.01693
1710000009.21,-0.0434,-0.0711,9.6586,-0.001,0.00012,0.0124
1710000009.22,0.006,-0.01,9.7594,-0.00624,-0.01058,0.00689
1710000009.23,-0.0286,0.0523,9.8629,-0.00264,-0.01399,-0.01951
1710000009.24,-0.0083,-0.0015,9.7809,0.01129,-0.00333,0.00121
1710000009.25,0.0941,-0.049,9.7868,0.01016,0.00935,0.00542
1710000009.26,-0.0085,-0.0674,9.6934,-0.00268,-0.029,0.00182
1710000009.27,0.0207,-0.0115,9.7285,0.00095,0.00173,0.00651
1710000009.28,-0.0116,-0.0379,9.8695,0.04507,0.00168,0.00947
1710000009.29,0.0038,0.0103,9.8409,0.02073,0.00795,-0.0008
1710000009.3,0.0003,-0.0701,9.7451,5e-05,-0.0105,0.00238
1710000009.31,0.0224,0.0407,9.7785,0.0139,0.01724,-0.00629
1710000009.32,0.0583,0.0058,9.8085,0.00345,0.00184,0.02313
1710000009.33,0.0824,0.0095,9.7502,0.01443,0.00417,0.01869
1710000009.34,0.0155,0.0721,9.7098,-0.00753,-0.00526,-0.00698
1710000009.35,0.0295,-0.0219,9.802,0.00703,0.01127,-0.00017
1710000009.36,-0.0575,-0.0363,9.8386,0.00985,0.02462,-0.0082
1710000009.37,-0.0044,-0.0274,9.8396,-0.00056,-0.00321,0.0131
1710000009.38,0.047,-0.0096,9.8538,-0.00461,0.00262,0.00453
1710000009.39,0.0433,-0.0045,9.7323,0.00193,0.0061,-0.00052
1710000009.4,0.0106,-0.0415,9.8129,-0.01389,0.01419,0.00838
1710000009.41,0.0443,-0.1012,9.7966,-0.00427,0.01016,-0.00674
1710000009.42,0.0245,-0.028,9.8056,-0.00583,0.00518,-0.00427
1710000009.43,0.06,0.018,9.7994,0.00822,0.00591,-0.00788
1710000009.44,0.0145,0.0068,9.777,0.00483,0.00891,0.0115
1710000009.45,-0.0178,0.06,9.6591,0.00613,0.01026,-0.00723
1710000009.46,0.0168,0.0978,9.8681,0.01145,0.01059,-0.00934
1710000009.47,-0.1465,0.038,9.8265,-0.01149,-0.0055,0.00919
1710000009.48,0.0191,0.0691,9.7358,0.01586,0.028,-0.02364
1710000009.49,-0.1824,0.0383,9.8337,0.00884,0.00325,0.00183
1710000009.5,-0.0862,0.0855,9.7876,-0.01405,0.00561,0.00366
1710000009.51,0.0226,0.0925,9.7891,0.00747,0.00986,0.00538
1710000009.52,0.0239,0.0476,9.7716,0.00537,0.00593,-0.0121
1710000009.53,-0.0581,0.0353,9.8368,0.00381,0.00952,0.00752
1710000009.54,-0.0356,-0.0103,9.77,-0.0096,-0.00596,-0.02169
1710000009.55,0.0685,-0.0021,9.7552,-0.00041,0.00078,-0.00449
1710000009.56,-0.0242,-0.0169,9.8666,0.00635,0.0003,-0.00265
1710000009.57,0.1121,0.0311,9.8011,0.00013,0.00972,0.0154
1710000009.58,-0.0001,-0.036,9.8026,-0.01346,0.00116,-0.00106
1710000009.59,0.0204,-0.0096,9.8446,-0.00385,0.00238,0.01503
1710000009.6,0.0808,-0.1178,9.7766,0.00331,0.00282,0.00583
1710000009.61,0.0066,0.0862,9.7866,-0.00206,0.01396,0.02604
1710000009.62,-0.0501,-0.011,9.8253,0.01858,-0.02651,-0.0044
1710000009.63,-0.0055,0.0228,9.7329,0.0073,0.00443,-0.00232
1710000009.64,-0.0018,0.0729,9.8211,0.00691,-0.00359,0.01224
1710000009.65,-0.0682,0.015,9.7722,0.00161,-0.01772,0.00959
1710000009.66,-0.0128,0.0722,9.8528,-0.00456,-0.01059,0.00836
1710000009.67,-0.0371,-0.0621,9.8373,0.01681,-0.01073,0.00618
1710000009.68,0.0462,0.1199,9.8307,-0.00384,-0.00412,0.00051
1710000009.69,0.0017,0.0544,9.7297,0.0006,-0.00827,-0.01428
1710000009.7,-0.0141,0.0105,9.8048,-0.00095,0.0006,-0.01357
1710000009.71,-0.0053,0.0713,9.7511,-0.01392,0.00788,0.00409
1710000009.72,0.0112,-0.0584,9.8082,0.00434,0.00167,-0.01262
1710000009.73,0.0308,-0.0144,9.6942,0.00967,-0.00688,0.00659
1710000009.74,-0.05,0.0722,9.733,-0.00581,0.00201,-0.0018
1710000009.75,-0.0521,-0.0934,9.8695,-0.00303,0.00624,0.0126
1710000009.76,0.0552,0.028,9.8285,-0.00828,0.01184,0.00617
1710000009.77,-0.0206,0.0266,9.7923,0.01787,-0.00821,-0.00721
1710000009.78,-0.0708,0.0985,9.7646,0.00426,0.01708,0.00851
1710000009.79,0.0222,-0.0791,9.7558,0.0131,0.00169,0.00632
1710000009.8,0.0232,0.0805,9.82,-0.00419,0.00144,0.00154
1710000009.81,-0.0765,-0.028,9.7928,0.00551,-0.00703,0.0089
1710000009.82,0.0115,-0.0224,9.8873,-0.01569,-0.01322,-0.00721
1710000009.83,0.0368,-0.0611,9.8008,-0.00605,-0.01408,-0.00547
1710000009.84,0.0187,-0.0544,9.8129,0.02028,0.0179,-0.00896
1710000009.85,0.0316,0.0202,9.7406,0.00406,0.01434,-0.02068
1710000009.86,-0.0702,-0.0556,9.792,-0.00331,0.00626,-0.01358
1710000009.87,0.0166,0.037,9.8188,-0.01842,-0.01103,-0.00367
1710000009.88,-0.0151,-0.0331,9.7914,0.00181,-0.00103,-0.00154
1710000009.89,-0.0241,-0.0607,9.7857,-0.00421,-0.01478,0.00865
1710000009.9,0.0435,-0.0264,9.8263,0.00847,-0.00606,-0.01483
1710000009.91,0.074,0.0168,9.8857,-0.01454,-0.0158,-0.0093
1710000009.92,0.0897,-0.0139,9.8172,0.0089,-0.00404,-0.00328
1710000009.93,0.0657,0.0017,9.8672,-0.00454,-0.00353,-0.00119
1710000009.94,-0.0055,0.0348,9.8411,-0.01037,-0.00647,0.00647
1710000009.95,0.0176,0.0541,9.8642,0.00185,-0.00926,-0.01501
1710000009.96,0.0383,-0.0155,9.7795,0.01817,-0.00159,0.01633
1710000009.97,0.0061,-0.0522,9.7997,0.00722,0.00529,-0.00301
1710000009.98,0.0065,0.0038,9.7999,0.00309,0.0128,0.01519
1710000009.99,0.0412,0.0235,9.8373,-0.00538,-0.00699,0.00761
1710000010.0,-0.003,-0.073,9.8496,0.01417,0.00591,-0.01236
1710000010.01,-0.0365,-0.0445,9.8163,0.00348,0.00573,-0.00724
1710000010.02,-0.0207,-0.036,9.8538,-0.01975,0.00353,-0.02352
1710000010.03,0.0317,-0.0104,9.7818,0.00761,0.00876,-0.01168
1710000010.04,0.0001,-0.0381,9.8543,0.00239,0.00148,-0.00248
1710000010.05,0.017,0.0354,9.8608,-0.00123,-0.00029,-0.00665
1710000010.06,0.0335,-0.0803,9.8439,0.01239,0.00587,-0.01245
1710000010.07,-0.0187,-0.079,9.8167,-0.00741,0.01889,-0.00565
1710000010.08,0.0378,-0.0167,9.8457,-0.00531,-0.01538,-0.00794
1710000010.09,0.0189,-0.0088,9.7653,-0.00182,0.00167,-0.00936
1710000010.1,-0.0617,-0.0727,9.8199,0.00407,-0.00441,0.00159
1710000010.11,0.0721,-0.0303,9.825,-0.00616,-0.01084,-0.01786
1710000010.12,-0.025,-0.0201,9.7435,-0.01002,0.00524,0.00814
1710000010.13,-0.0828,-0.0197,9.8337,-0.00211,-0.00329,-0.00137
1710000010.14,-0.0523,0.0076,9.7476,-0.00512,-0.00487,0.00356
1710000010.15,-0.0511,-0.0331,9.7886,0.0164,0.00323,-0.00268
1710000010.16,0.0026,0.0739,9.812,-0.02068,0.00785,-0.00405
1710000010.17,-0.0137,0.0244,9.7735,0.0087,-0.01095,-0.01739
1710000010.18,-0.0168,-0.0404,9.8141,-0.0206,0.00207,0.02696
1710000010.19,0.031,0.0047,9.8133,-0.00097,0.01405,0.00678
1710000010.2,0.017,0.0062,9.769,-0.01101,0.00161,-0.00145
1710000010.21,0.0158,0.0607,9.8384,-0.01571,-0.00111,0.00512
1710000010.22,0.0205,-0.03,9.7718,0.01302,-0.00187,-0.00219
1710000010.23,0.0308,0.0384,9.9244,0.00707,-0.02014,-0.01118
1710000010.24,-0.1054,0.0021,9.8045,0.00041,-0.01855,-0.01069
1710000010.25,-0.0182,0.0746,9.7514,0.00109,0.0096,0.01546
1710000010.26,-0.109,0.0645,9.7608,-0.00786,0.01983,-0.00229
1710000010.27,0.0018,0.0098,9.8674,-0.00483,0.01599,0.00856
1710000010.28,-0.0002,-0.0131,9.7895,-0.00711,0.01913,0.00796
1710000010.29,0.0523,0.0253,9.7418,-0.00547,-0.00311,-0.00251
1710000010.3,0.0594,-0.009,9.8527,-0.00234,-0.00136,-0.00117
1710000010.31,0.0101,0.084,9.7892,0.01309,-0.01193,-0.00676
1710000010.32,-0.025,0.0039,9.8427,0.00571,-0.0105,0.00078
1710000010.33,0.0243,-0.0203,9.8568,0.00289,0.00766,0.00908
1710000010.34,-0.0264,-0.023,9.8237,-0.01015,-0.00692,0.01044
1710000010.35,-0.0001,-0.0607,9.9298,0.00425,-0.00539,-0.01434
1710000010.36,0.0493,0.0278,9.7238,-0.02512,-0.00306,-0.00358
1710000010.37,-0.0279,-0.041,9.7691,-0.00715,0.00915,-0.01087
1710000010.38,0.0403,0.0549,9.7972,-0.01256,0.00015,0.01346
1710000010.39,0.0339,-0.0646,9.9231,-0.00394,-0.00588,-0.00018
1710000010.4,-0.0477,0.0064,9.8999,-0.0031,0.00018,0.00377
1710000010.41,0.0487,0.0575,9.8744,-0.00457,0.00898,1e-05
1710000010.42,0.0349,-0.1076,9.7703,-0.00041,-0.00605,-0.00699
1710000010.43,0.0051,0.1009,9.7761,0.00127,-0.00979,0.01897
1710000010.44,-0.0381,-0.0213,9.7686,0.01316,-0.00921,0.01221
1710000010.45,-0.043,0.0071,9.7708,-0.00833,0.01972,0.00346
1710000010.46,-0.0269,0.0286,9.8846,-0.00857,-0.00751,-0.00972
1710000010.47,0.0271,0.0363,9.7978,-0.00131,0.00018,-0.00331
1710000010.48,-0.0478,0.0137,9.8044,0.0028,-0.01889,0.00216
1710000010.49,0.0219,0.0499,9.8487,0.00015,0.02315,-0.00388
1710000010.5,-0.0621,0.026,9.7268,0.01803,-0.00588,-0.00944
1710000010.51,-0.0102,0.088,9.8126,0.00823,0.00487,-0.00147
1710000010.52,0.0055,0.0261,9.7552,0.0135,-0.00093,-0.00483
1710000010.53,0.1223,0.0982,9.7953,0.00429,-0.00737,-0.01703
1710000010.54,-0.0689,0.0451,9.7807,0.0006,0.00685,-0.01694
1710000010.55,0.0736,-0.0903,9.7781,-0.02556,-0.00597,0.00148
1710000010.56,0.0075,0.1306,9.8213,0.00023,0.00964,0.00026
1710000010.57,0.0206,-0.0287,9.8211,-0.00354,0.02613,0.0063
1710000010.58,0.0059,0.0748,9.799,-0.00328,0.00871,0.01246
1710000010.59,0.0222,0.0013,9.8285,0.00957,-0.00839,-0.0164
1710000010.6,-0.0077,0.0531,9.7666,-0.0136,-0.00224,-0.00794
1710000010.61,0.0727,-0.0344,9.8441,0.01054,-0.01677,-0.01711
1710000010.62,-0.0228,0.0313,9.7997,0.00595,-0.02291,0.01733
1710000010.63,0.0566,-0.0127,9.7858,0.00185,-0.01314,-0.00115
1710000010.64,-0.0322,0.079,9.7703,0.00773,0.00058,-0.01563
1710000010.65,-0.003,0.0219,9.7979,-0.01837,0.00336,0.00089
1710000010.66,-0.0536,0.0468,9.9035,0.00335,0.00318,-0.01117
1710000010.67,0.0228,-0.1082,9.8068,-0.01535,0.00485,0.0084
1710000010.68,0.0723,-0.0043,9.7528,0.00303,0.00156,-0.0073
1710000010.69,-0.0039,0.0205,9.8559,-0.01256,0.00803,-0.00361
1710000010.7,-0.0098,0.0112,9.7864,-0.00854,0.00182,-0.01575
1710000010.71,-0.0557,0.0481,9.8242,-0.00512,-0.00757,-0.00604
1710000010.72,-0.0115,-0.0183,9.7797,-0.00343,0.00853,-0.00326
1710000010.73,-0.0796,0.0024,9.874,0.0013,-0.01117,0.00131
1710000010.74,-0.0456,0.0591,9.7805,0.00646,-0.00933,0.01866
1710000010.75,0.0113,-0.1139,9.8799,0.02337,0.02057,-0.03124
1710000010.76,0.066,0.0295,9.7575,-0.00742,-0.0103,0.00606
1710000010.77,0.1405,-0.0167,9.7954,0.0006,0.00861,-0.00631
1710000010.78,-0.0293,-0.0456,9.88,-0.00158,0.00571,-0.00326
1710000010.79,0.0718,0.0168,9.8184,-0.01136,-0.01135,-0.00837
1710000010.8,0.0122,0.0614,9.9236,-0.02039,0.02708,-0.00663
1710000010.81,-0.0076,0.052,9.7965,-0.01027,-0.00268,-0.01654
1710000010.82,0.0216,-0.0068,9.8229,-0.00635,-0.00393,0.00926
1710000010.83,0.0031,0.0438,9.9053,-0.00458,-0.00349,-0.00404
1710000010.84,0.0055,0.0434,9.7343,-0.01507,0.00464,0.01817
1710000010.85,-0.0204,-0.0044,9.7281,-0.00381,-0.00695,0.00924
1710000010.86,-0.0699,-0.0347,9.7702,-0.00255,-0.01413,0.00758
1710000010.87,-0.0772,-0.0318,9.8507,-0.00979,0.00669,0.02454
1710000010.88,0.0327,0.0419,9.7295,0.00677,-0.01254,-0.00537
1710000010.89,-0.0138,-0.0021,9.8399,-0.01789,-0.01457,0.00762
1710000010.9,-0.0298,-0.0523,9.8363,0.002,-0.00639,-0.01773
1710000010.91,0.0004,-0.0842,9.9107,-0.00307,0.0236,0.00499
1710000010.92,0.0397,0.0416,9.8623,9e-05,-0.00409,0.00614
1710000010.93,0.009,-0.0273,9.8282,0.00339,0.01667,0.00836
1710000010.94,-0.0328,0.0165,9.878,0.00217,-0.00122,-0.00798
1710000010.95,0.0613,0.062,9.8369,-0.02034,0.00083,0.00356
1710000010.96,0.079,-0.0654,9.787,-0.00332,0.00224,-0.0053
1710000010.97,0.0247,-0.0023,9.7528,0.0039,-0.00632,-0.00457
1710000010.98,0.0487,-0.0085,9.7815,0.00424,0.00024,-0.0031
1710000010.99,0.0621,0.019,9.808,-0.00874,0.00546,0.00125
1710000011.0,0.0565,0.062,9.8188,-0.01157,0.00205,0.00182
1710000011.01,0.0307,-0.0665,9.7032,0.00495,-0.00638,0.01218
1710000011.02,0.0299,0.0285,9.799,0.00413,0.00947,0.01081
1710000011.03,0.026,0.0516,9.8114,-0.01155,-0.01935,-0.00137
1710000011.04,-0.0549,-0.0093,9.8374,-0.01361,0.00641,0.00657
1710000011.05,0.035,-0.0069,9.8913,-0.00486,0.00414,0.00172
1710000011.06,-0.0678,0.0209,9.8193,-0.00871,0.00082,-0.00685
1710000011.07,-0.0397,0.0172,9.7645,0.00029,0.0116,-0.00102
1710000011.08,0.0652,0.0291,9.7191,0.01249,0.00389,0.00522
1710000011.09,0.042,0.0281,9.8444,-0.01352,-0.02837,0.01019
1710000011.1,0.0744,-0.0491,9.7665,-0.00247,0.00812,0.00347
1710000011.11,-0.0136,0.0495,9.8533,-0.00886,0.00011,0.00894
1710000011.12,-0.0576,0.0583,9.8799,0.00638,0.00127,0.01004
1710000011.13,-0.012,0.0093,9.7328,0.00703,0.00247,0.00677
1710000011.14,0.0051,-0.0747,9.8377,-0.01027,0.00101,-0.00122
1710000011.15,0.0039,-0.0057,9.8746,0.00972,-0.0113,-0.0015
1710000011.16,0.0567,0.0097,9.861,0.00707,-0.00598,-0.00712
1710000011.17,-0.0181,-0.0572,9.7052,-0.00295,0.00867,0.00523
1710000011.18,0.0176,-0.018,9.7673,0.00617,-0.00029,-0.01444
1710000011.19,-0.0494,-0.0705,9.746,-0.01497,0.00172,0.01698
1710000011.2,0.0225,0.0304,9.8362,0.01777,0.00673,-0.00142
1710000011.21,0.0002,0.0083,9.8307,-0.00076,-0.0023,-0.01246
1710000011.22,-0.0375,-0.0823,9.6751,0.01127,0.01096,0.00914
1710000011.23,-0.0118,0.0176,9.795,-0.00732,0.00224,-0.0064
1710000011.24,-0.0092,-0.0028,9.85,-0.01715,-0.01112,0.00202
1710000011.25,-0.0135,0.0258,9.8174,0.00335,-0.0033,-0.00981
1710000011.26,0.0886,-0.0196,9.8173,-0.00875,-0.00396,-0.00719
1710000011.27,-0.0049,-0.0401,9.7918,-0.00767,0.00067,0.0132
1710000011.28,-0.0122,-0.0385,9.7571,0.00105,-0.01081,-0.00187
1710000011.29,-0.1049,-0.0269,9.8091,0.007,0.01792,0.00516
1710000011.3,-0.0447,0.0009,9.8126,0.00222,0.00828,0.00027
1710000011.31,-0.0132,0.0074,9.8408,0.0092,0.00241,-0.00115
1710000011.32,-0.0343,-0.0095,9.8448,-0.00337,0.00099,-0.00612
1710000011.33,0.0691,-0.0212,9.8143,0.01225,0.00966,-0.01216
1710000011.34,-0.0082,-0.0176,9.8647,0.00687,-0.01527,0.00443
1710000011.35,0.0644,0.1254,9.7913,-0.01222,0.00308,0.00065
1710000011.36,0.0031,-0.0385,9.7378,0.00499,-0.01221,-0.00511
1710000011.37,0.0019,-0.0279,9.8339,-0.00111,0.009,-0.00361
1710000011.38,-0.0044,0.1647,9.8163,-0.00935,-0.00862,0.01203
1710000011.39,0.0002,0.0211,9.8348,0.00435,0.00308,0.00755
1710000011.4,0.0859,-0.069,9.7468,0.00283,0.01943,0.00231
1710000011.41,-0.116,0.0421,9.8995,0.00525,0.01118,-0.00796
1710000011.42,-0.1001,-0.0455,9.8455,-0.01242,-0.01019,0.00394
1710000011.43,-0.0272,0.0455,9.7956,-0.02336,0.00224,-0.00709
1710000011.44,0.0007,-0.0105,9.7632,-0.00488,0.00071,-0.00379
1710000011.45,0.0345,-0.022,9.8639,-0.00425,-0.00053,0.01336
1710000011.46,0.0237,0.0805,9.7549,0.0033,0.01674,-0.01056
1710000011.47,-0.0192,0.0283,9.9231,-0.0285,-0.00059,-0.00593
1710000011.48,0.051,0.0486,9.7793,0.00486,0.02294,0.0072
1710000011.49,0.0515,0.0217,9.896,0.00671,-0.00639,0.01092
1710000011.5,0.0092,-0.0222,9.8008,0.00735,0.00081,-0.00844
1710000011.51,0.0481,0.0306,9.889,0.00691,0.00017,-0.00285
1710000011.52,0.0136,0.0605,9.7733,-0.01241,0.00288,0.01515
1710000011.53,-0.0281,0.0067,9.8109,-0.01019,0.00809,0.01484
1710000011.54,0.0349,0.0901,9.8502,-0.00346,0.01312,-0.00509
1710000011.55,0.0055,0.0425,9.8431,-0.00299,-0.00093,-0.00099
1710000011.56,0.0001,0.0106,9.865,-0.01092,-0.00188,0.00274
1710000011.57,0.0736,0.0126,9.7856,0.00034,-0.00062,0.00924
1710000011.58,-0.1225,0.0069,9.8142,0.00324,0.00937,-0.00426
1710000011.59,-0.0709,-0.0626,9.8724,0.00208,-0.01218,-0.00291
1710000011.6,-0.0594,-0.0045,9.7747,0.0002,-0.00447,0.03435
1710000011.61,-0.0182,0.0111,9.8386,0.00275,0.01811,0.01072
1710000011.62,-0.0127,-0.0208,9.799,-0.00362,-0.02105,0.00606
1710000011.63,-0.0754,0.0169,9.8203,0.00425,0.00905,-0.00533
1710000011.64,-0.0493,0.0011,9.8142,0.00306,0.01196,0.00253
1710000011.65,-0.043,0.0387,9.7706,-0.00888,0.00957,-0.00113
1710000011.66,0.1229,0.0332,9.797,0.01746,-0.00508,-0.00411
1710000011.67,0.0901,0.0084,9.8172,0.01429,0.01033,-0.00637
1710000011.68,-0.0206,-0.0684,9.8049,0.00602,0.00615,-0.00755
1710000011.69,-0.0182,0.0895,9.8886,0.01047,0.00579,-0.00046
1710000011.7,-0.0575,-0.0071,9.8605,0.00226,-0.01094,-0.01248
1710000011.71,-0.0954,-0.004,9.8245,-0.00427,-0.00265,-0.02025
1710000011.72,-0.0058,-0.0171,9.7718,0.01044,0.00095,-0.00849
1710000011.73,-0.0499,-0.0244,9.7688,0.00214,0.02556,0.00052
1710000011.74,-0.0042,0.0772,9.9087,0.00644,-0.01218,-0.0133
1710000011.75,-0.08,0.0693,9.7595,0.01477,-0.00082,-0.01663
1710000011.76,-0.0381,0.0222,9.8157,-0.0161,0.00397,-0.01082
1710000011.77,0.0074,-0.0054,9.828,0.00402,0.00035,0.00273
1710000011.78,0.0183,0.031,9.7944,-0.00958,0.00165,0.00181
1710000011.79,0.0209,0.0037,9.7599,-0.0022,-0.01624,-0.00908
1710000011.8,-0.066,-0.0095,9.7708,-0.00821,0.00281,-0.00795
1710000011.81,0.0427,0.0169,9.7827,0.01116,-0.01067,-0.00035
1710000011.82,-0.04,-0.0221,9.7745,0.00418,-0.00052,0.00098
1710000011.83,0.0316,0.0126,9.8764,0.00011,-0.00074,-0.0039
1710000011.84,-0.0005,0.0102,9.8095,-0.01597,0.0135,0.01135
1710000011.85,-0.0688,0.0301,9.7838,-0.00581,-0.02376,-0.00295
1710000011.86,-0.0158,-0.031,9.8153,-0.00522,-0.02106,0.00952
1710000011.87,0.0183,0.0355,9.8434,0.00256,-0.00637,0.00996
1710000011.88,0.0306,-0.0453,9.7928,-0.00479,0.00897,-0.01667
1710000011.89,-0.007,-0.0286,9.8551,-0.00368,0.00312,0.00813
1710000011.9,0.0766,-0.0264,9.7464,-0.02487,-0.00012,0.00915
1710000011.91,0.0504,-0.0536,9.8686,0.00879,0.01366,0.00726
1710000011.92,-0.0128,0.0508,9.8096,-0.01233,-0.00813,-0.01434
1710000011.93,0.0375,-0.0485,9.8076,-0.00749,-0.00564,-0.00415
1710000011.94,0.0967,-0.0349,9.7753,0.0047,0.00547,-0.0049
1710000011.95,0.098,0.0628,9.7486,0.00821,0.00352,0.01461
1710000011.96,-0.0614,-0.0285,9.7267,-0.00038,-0.00703,0.01284
1710000011.97,-0.0463,-0.0094,9.7719,0.00309,-0.00543,-0.00634
1710000011.98,0.0742,-0.0506,9.8394,0.00897,-0.00768,-0.00345
1710000011.99,-0.0529,0.0416,9.7619,-0.02672,-0.0129,-0.01524
1710000012.0,-0.0661,0.0423,9.7326,0.00822,-0.00561,-0.0008
1710000012.01,-0.0243,0.0369,9.7645,-0.02218,-0.02015,0.01815
1710000012.02,0.021,0.0269,9.7908,-0.00382,-0.00145,-0.01904
1710000012.03,-0.0051,0.0037,9.7927,0.00358,-0.00187,-0.01677
1710000012.04,-0.0325,-0.0262,9.8036,-0.01035,0.00106,-0.00785
1710000012.05,-0.0337,-0.0407,9.8616,-0.00262,0.01251,0.00037
1710000012.06,-0.0356,0.0645,9.8725,-0.03241,-0.00126,0.00087
1710000012.07,-0.044,0.0382,9.9103,-0.01365,-0.00862,-0.00859
1710000012.08,0.1141,-0.0347,9.7288,-0.0087,-0.00257,0.00604
1710000012.09,0.0149,0.002,9.7672,-0.0106,-0.01015,0.00151
1710000012.1,0.0443,-0.015,9.8449,-0.00221,0.00473,0.01259
1710000012.11,-0.0245,-0.0564,9.7873,0.01651,0.00794,-0.00095
1710000012.12,-0.0093,0.0089,9.853,0.00782,0.00828,-0.00458
1710000012.13,-0.0357,-0.0208,9.8204,0.00821,0.01317,0.00839
1710000012.14,-0.1326,-0.0476,9.889,0.0039,-0.0159,0.01579
1710000012.15,-0.0689,-0.074,9.8621,-0.01496,-0.00487,-0.01535
1710000012.16,-0.0905,-0.0782,9.8631,0.01116,0.0265,0.01062
1710000012.17,-0.1125,-0.0186,9.7894,0.00308,0.01021,-0.01376
1710000012.18,-0.0598,-0.0043,9.8051,0.00454,0.00512,0.01423
1710000012.19,0.0662,-0.0438,9.7947,0.00739,-0.00126,-0.01768
1710000012.2,-0.0022,0.0325,9.7347,0.00441,0.01243,0.00713
1710000012.21,0.0645,-0.0033,9.8836,0.00299,-0.00319,0.00605
1710000012.22,0.0205,0.0288,9.8473,-0.00886,-0.00551,-0.00093
1710000012.23,0.0391,-0.0091,9.7927,-0.0109,0.00254,0.00703
1710000012.24,-0.045,-0.0394,9.8752,-0.01083,-0.00106,0.00778
1710000012.25,0.0262,0.0057,9.7785,-0.02978,-0.00686,0.00518
1710000012.26,0.0364,-0.0631,9.7181,-0.00577,-0.00598,-0.0092
1710000012.27,-0.0288,0.027,9.8604,0.00473,0.01028,-0.0092
1710000012.28,0.028,-0.0469,9.7461,0.01054,0.01548,0.00705
1710000012.29,0.0283,0.0459,9.8002,-0.00794,0.00505,-0.01171
1710000012.3,-0.0275,-0.0169,9.8203,-0.0017,-0.00569,-0.02108
1710000012.31,-0.0561,0.0531,9.8293,-0.00574,-0.00135,-0.00603
1710000012.32,-0.0592,-0.0561,9.8524,0.0016,-0.00981,-0.00882
1710000012.33,0.0043,-0.0339,9.839,-0.01432,-0.01193,0.00702
1710000012.34,0.0164,0.019,9.8375,-0.00593,0.00228,0.00285
1710000012.35,-0.0396,0.0585,9.7705,-0.00863,-0.00113,0.01209
1710000012.36,0.0013,0.0833,9.8247,0.00575,0.01198,0.01191
1710000012.37,0.0285,0.0021,9.7347,-0.01768,0.00811,0.00783
1710000012.38,0.0309,0.0919,9.8881,0.00315,-0.01821,-0.01139
1710000012.39,0.0776,-0.0145,9.7399,0.00867,0.01492,0.00845
1710000012.4,0.0638,0.0549,9.7927,-0.01506,-0.00432,0.02256
1710000012.41,-0.0501,-0.0471,9.7441,-0.00683,-0.00523,0.00043
1710000012.42,0.0842,0.021,9.7735,-0.00897,-0.00213,0.00786
1710000012.43,-0.0265,-0.1171,9.8107,0.01561,-0.00096,-0.0033
1710000012.44,0.0522,-0.0561,9.7836,0.01338,-0.0142,-0.02571
1710000012.45,0.0034,0.0233,9.8672,0.00904,0.0055,-0.00659
1710000012.46,-0.0206,-0.0656,9.8213,0.00393,-0.00514,0.0142
1710000012.47,-0.0904,0.0213,9.7869,0.00874,-0.0113,-0.00281
1710000012.48,-0.0086,0.0453,9.8033,0.00586,0.01022,0.00965
1710000012.49,-0.078,-0.0251,9.871,0.01592,-0.01165,0.01483
1710000012.5,0.0484,-0.0484,9.8554,0.00042,0.00361,-0.00525
1710000012.51,0.0758,-0.0237,9.7531,-0.02471,-0.00458,-0.00605
1710000012.52,-0.0398,-0.0483,9.776,-0.00493,0.01259,-0.00484
1710000012.53,0.0151,-0.0051,9.8337,0.00545,0.00648,-0.01182
1710000012.54,-0.0363,0.0051,9.8277,-0.00326,0.01015,-0.0008
1710000012.55,-0.0314,-0.0153,9.7575,0.01191,-0.01996,-0.01694
1710000012.56,0.0387,0.0837,9.8475,-0.00837,-0.00577,-0.0252
1710000012.57,-0.0019,-0.036,9.7655,0.009,-0.00208,0.00403
1710000012.58,0.087,0.0696,9.8752,-0.01464,0.00325,-0.00511
1710000012.59,-0.0241,-0.0521,9.8365,0.00336,0.01241,-0.00706
1710000012.6,0.05,0.0036,9.7534,-0.0081,-0.01695,0.00887
1710000012.61,0.0049,0.0592,9.7835,-0.01337,0.00261,0.00218
1710000012.62,0.0398,0.0566,9.7827,-0.00058,-0.00879,-0.01173
1710000012.63,-0.0224,-0.021,9.818,-0.01215,-0.00251,0.00313
1710000012.64,-0.0025,0.0278,9.7998,0.00771,-0.0108,0.0121
1710000012.65,-0.0058,0.0211,9.7527,-0.0036,0.0268,0.01028
1710000012.66,-0.0418,-0.027,9.7403,0.00093,0.00725,0.01085
1710000012.67,0.0331,0.0308,9.8375,-0.00054,-0.0022,0.00051
1710000012.68,0.0325,0.0931,9.8243,0.00564,-0.00664,-0.00383
1710000012.69,0.0297,0.0236,9.8153,-0.00695,0.00697,0.00987
1710000012.7,0.0768,0.0283,9.8235,0.0112,-0.00218,0.01838
1710000012.71,0.0725,0.0336,9.7791,0.02044,0.00374,-0.00241
1710000012.72,-0.0187,-0.073,9.8192,-0.01108,0.00314,-0.00526
1710000012.73,0.0187,0.023,9.9369,0.01594,-0.00478,0.01658
1710000012.74,-0.0312,-0.0508,9.8687,-0.00551,0.0061,-0.00163
1710000012.75,0.0012,-0.0295,9.7956,-0.00505,-0.00652,-0.0037
1710000012.76,-0.03,0.1081,9.7838,0.00846,-0.01127,-0.0054
1710000012.77,0.081,-0.0127,9.667,-0.01106,0.0025,0.00619
1710000012.78,0.0182,-0.037,9.8634,0.00599,0.01015,-0.0003
1710000012.79,-0.0109,0.0576,9.8493,0.00551,-0.01288,-0.00443
1710000012.8,0.0597,-0.0474,9.7828,-0.00072,0.02272,-0.00073
1710000012.81,-0.1085,-0.0224,9.7384,-0.00111,-0.01069,-0.00259
1710000012.82,-0.1007,0.0625,9.7522,-0.00536,0.00301,-0.00458
1710000012.83,0.0398,0.0021,9.8322,0.00723,0.02377,0.0038
1710000012.84,0.003,-0.0781,9.8055,-0.00388,-0.0133,0.00161
1710000012.85,0.0125,0.0272,9.8446,0.01113,-0.01131,0.00342
1710000012.86,-0.0663,-0.0198,9.8143,0.01144,0.0137,0.01016
1710000012.87,-0.0012,0.077,9.8583,-0.01455,0.01583,-0.01267
1710000012.88,0.1002,-0.0303,9.8285,-0.01323,-0.01706,-0.0156
1710000012.89,0.0412,0.0526,9.8514,-0.00186,-0.00744,-0.00855
1710000012.9,0.0085,0.0888,9.7055,-0.00941,-0.00466,-2e-05
1710000012.91,-0.022,-0.0425,9.7483,-0.00689,-0.00575,0.00133
1710000012.92,-0.0197,-0.0097,9.7918,-0.00817,0.00392,-0.00682
1710000012.93,-0.1065,0.0194,9.864,0.01926,0.00125,-0.00074
1710000012.94,0.0129,-0.0429,9.904,0.01145,-0.01524,-0.00752
1710000012.95,0.0423,0.0135,9.8018,-0.00842,0.01419,-0.0157
1710000012.96,-0.0788,-0.0112,9.7794,-0.01929,-0.01345,-0.01362
1710000012.97,-0.0331,-0.0123,9.7123,-0.0057,0.00599,0.00553
1710000012.98,-0.0579,0.0024,9.8532,-0.01282,-0.02336,-0.01677
1710000012.99,-0.0483,0.0036,9.7825,0.00708,-0.01028,0.01036
1710000013.0,0.0027,0.0082,9.9579,0.00059,-0.01072,0.00053
1710000013.01,-0.1042,-0.0299,9.773,-0.00576,0.02124,-0.0094
1710000013.02,0.0307,-0.0278,9.9153,-0.00086,-0.00629,-0.00176
1710000013.03,0.0377,-0.0059,9.8474,-0.01155,0.00413,-0.00993
1710000013.04,-0.0126,-0.0022,9.7586,-0.00234,0.0078,0.01594
1710000013.05,-0.124,-0.0219,9.8216,0.01631,0.00644,-0.00427
1710000013.06,-0.0498,0.0162,9.8486,-0.00687,-0.005,-0.0113
1710000013.07,0.0616,-0.0907,9.7987,0.00099,-0.00331,0.02668
1710000013.08,-0.1389,-0.0365,9.8519,-0.00784,0.00671,-0.00074
1710000013.09,-0.0174,-0.014,9.8508,-0.008,0.00186,0.00693
1710000013.1,-0.059,-0.0428,9.8398,0.00828,0.0166,0.00141
1710000013.11,0.0402,0.0815,9.8092,-0.01239,-0.02314,0.00267
1710000013.12,-0.0338,0.0009,9.7513,-0.00184,0.01108,0.00724
1710000013.13,0.0202,0.0088,9.8062,-0.00879,0.00254,0.00842
1710000013.14,0.0283,-0.0242,9.8188,0.01373,0.01817,-0.00788
1710000013.15,0.0918,-0.0008,9.7162,-0.00693,0.02367,-0.00098
1710000013.16,-0.0101,-0.0608,9.8185,-0.01272,-0.00067,0.00027
1710000013.17,0.0188,-0.0085,9.8052,-0.00162,0.00457,-0.00301
1710000013.18,-0.0743,-0.0469,9.7452,-0.00158,-0.00373,0.01331
1710000013.19,0.0595,-0.0139,9.7933,0.01094,0.01061,0.01243
1710000013.2,-0.038,-0.128,9.7944,-0.00549,0.01085,-0.02398
1710000013.21,-0.028,-0.0564,9.9065,0.00422,-0.00319,0.00727
1710000013.22,-0.0011,0.0732,9.821,-0.01002,0.00781,0.00502
1710000013.23,-0.0781,0.0415,9.8618,0.01086,-0.00056,0.00565
1710000013.24,0.0114,0.066,9.8041,0.00882,-0.00832,0.00453
1710000013.25,0.0484,0.0694,9.7163,0.00554,0.00313,-0.00419
1710000013.26,0.0146,0.0336,9.8436,0.00833,0.00578,0.01602
1710000013.27,-0.0794,-0.0226,9.7771,0.00258,0.00642,-0.02679
1710000013.28,-0.0062,-0.0519,9.7932,0.00114,-0.00877,-0.01959
1710000013.29,0.0371,0.0573,9.7574,-0.01149,-0.00196,-0.01211
1710000013.3,-0.0939,0.0032,9.8136,-0.00672,-0.01606,0.00292
1710000013.31,-0.0537,0.1247,9.8633,0.00843,0.00159,-0.00797
1710000013.32,0.0438,-0.0183,9.8566,0.00805,0.00107,0.00067
1710000013.33,0.0135,0.0986,9.8893,0.00888,-0.014,-0.00791
1710000013.34,0.0206,-0.0078,9.8964,-0.0043,-0.01429,-0.01
1710000013.35,0.093,0.0668,9.7077,0.01677,0.00592,0.00396
1710000013.36,0.0234,0.0848,9.7503,-0.00172,0.01299,0.00504
1710000013.37,0.0329,-0.0511,9.7196,0.00459,-0.00823,0.02208
1710000013.38,0.1355,-0.0242,9.8416,0.02777,-0.00123,0.00266
1710000013.39,-0.0107,-0.0516,9.7753,-0.00514,-0.01484,-0.00454
1710000013.4,-0.0399,-0.0615,9.7855,0.00719,0.00905,-0.00446
1710000013.41,0.0214,0.0334,9.7992,-0.01512,0.01498,-0.02026
1710000013.42,0.0219,-0.0098,9.8291,-0.00371,-0.01132,0.00586
1710000013.43,-0.0263,0.0026,9.7357,0.00595,-0.01409,0.00157
1710000013.44,-0.0516,0.0278,9.7471,-0.00618,-0.00198,-0.00167
1710000013.45,0.1155,-0.0929,9.8101,0.00038,0.00207,0.00059
1710000013.46,0.0163,0.0643,9.8699,0.00226,-0.0128,-0.00976
1710000013.47,-0.0366,-0.0175,9.8087,0.00161,-0.01222,-0.0225
1710000013.48,0.0458,0.0266,9.7704,-0.02205,0.01044,-0.00213
1710000013.49,-0.0055,0.031,9.7026,0.02242,-0.01678,-0.00334
1710000013.5,-0.0126,0.0685,9.8576,-0.01109,-0.01518,0.00235
1710000013.51,0.0281,-0.0052,9.7732,-0.00805,-0.0016,0.001
1710000013.52,-0.0646,-0.1062,9.7526,-0.01623,0.01861,0.00082
1710000013.53,0.0176,0.0029,9.7242,-0.01029,-0.00511,-0.00653
1710000013.54,0.0956,0.01,9.738,-0.00071,-0.01188,0.01997
1710000013.55,0.0233,-0.0517,9.7619,0.00984,0.00532,0.01143
1710000013.56,-0.0188,0.0074,9.7981,-0.00644,0.01127,-0.00948
1710000013.57,-0.0254,-0.0181,9.7496,0.001,0.01365,0.01369
1710000013.58,-0.0205,-0.0671,9.8193,0.00284,0.00382,0.00413
1710000013.59,-0.0127,0.0336,9.7977,-0.01166,0.00596,-0.01542
1710000013.6,-0.0189,-0.0282,9.9211,-0.01899,0.00616,0.01187
1710000013.61,0.0458,-0.0203,9.7248,-0.01006,0.00208,-0.00466
1710000013.62,-0.0867,-0.0231,9.8181,0.01286,0.01832,-0.00419
1710000013.63,0.0431,0.0618,9.8187,-0.00854,0.00071,-0.00198
1710000013.64,-0.019,-0.002,9.7585,-0.00791,-0.00073,0.00136
1710000013.65,0.0188,0.004,9.8148,0.0028,0.00877,-0.00257
1710000013.66,-0.0563,-0.022,9.8485,0.0057,0.00214,0.00966
1710000013.67,0.0664,0.0231,9.8148,-0.01213,0.01939,0.01668
1710000013.68,0.0623,0.0675,9.8792,0.00666,0.01991,-0.00342
1710000013.69,0.048,0.0324,9.7011,0.00418,-0.00948,-0.01516
1710000013.7,-0.0757,0.0343,9.7679,-0.00654,0.00816,-0.00451
1710000013.71,0.0415,0.0303,9.8838,-0.01949,0.00046,-0.00903
1710000013.72,0.0202,-0.069,9.8556,0.00717,0.0034,-0.0055
1710000013.73,-0.0803,-0.0438,9.837,0.00271,0.01174,-0.01382
1710000013.74,-0.0012,-0.0102,9.8717,0.00101,-0.00273,0.00448
1710000013.75,0.0182,-0.0363,9.7142,-0.01469,-0.00813,-0.01421
1710000013.76,0.0278,-0.0532,9.8498,0.02187,-0.00577,-0.01143
1710000013.77,0.0089,-0.0936,9.8632,-0.01098,-0.00145,0.01603
1710000013.78,0.0146,-0.0673,9.7771,-0.00634,-0.02003,-0.01483
1710000013.79,0.0737,-0.0128,9.9415,0.00887,-0.0036,-0.01258
1710000013.8,0.0613,-0.0035,9.8198,0.00012,-0.00019,0.01528
1710000013.81,-0.1434,-0.0397,9.7004,0.00114,0.00894,-0.00111
1710000013.82,-0.0159,0.0039,9.8291,-0.01284,-0.00609,-0.0115
1710000013.83,-0.0082,-0.0217,9.774,-0.0136,0.00408,-0.01039
1710000013.84,-0.0876,0.0545,9.8682,0.00308,0.00069,0.02715
1710000013.85,0.0047,-0.0081,9.8374,-0.00482,0.00845,0.00812
1710000013.86,0.0624,0.0348,9.7801,0.01829,0.01163,0.00288
1710000013.87,-0.0543,0.0102,9.8851,-0.0124,-0.00422,0.00835
1710000013.88,0.0168,-0.0701,9.857,-0.00469,0.01167,-0.00343
1710000013.89,-0.0458,-0.0045,9.7686,0.00129,0.00978,0.0014
1710000013.9,-0.0336,-0.0618,9.8024,-0.00504,-0.00338,0.00478
1710000013.91,0.0739,-0.0054,9.8358,-0.00851,0.01061,-0.0057
1710000013.92,-0.0271,-0.0373,9.7918,0.00019,0.00257,0.001
1710000013.93,0.0231,0.0191,9.7933,0.0197,0.00712,0.01538
1710000013.94,-0.0936,-0.0671,9.8118,-0.007,0.00574,-0.01147
1710000013.95,0.0931,0.0007,9.7567,-0.01666,-0.00524,-0.00502
1710000013.96,0.0301,0.0286,9.6984,0.00503,-0.00612,-0.00613
1710000013.97,-0.0091,0.0454,9.822,-0.00411,0.01316,0.00752
1710000013.98,0.0288,-0.0382,9.7106,-0.01076,-0.00458,0.01104
1710000013.99,-0.0705,0.0009,9.7603,0.00577,-0.0201,-0.01493
1710000014.0,0.0591,0.0092,9.7214,0.00429,-0.00711,-0.00332
1710000014.01,-0.0162,0.0774,9.7276,-0.00724,0.01228,-0.00742
1710000014.02,-0.0102,-0.0741,9.8313,-0.01705,0.01464,0.00486
1710000014.03,-0.0246,-0.0456,9.7989,0.0088,0.0114,6e-05
1710000014.04,-0.029,0.1402,9.7971,-0.00721,-0.0039,0.00886
1710000014.05,0.0347,-0.0137,9.7442,0.00229,-0.00335,0.019
1710000014.06,0.0128,-0.0945,9.7772,-0.00169,0.0039,-0.02115
1710000014.07,0.0326,-0.0291,9.8288,0.00474,0.00592,-0.0211
1710000014.08,-0.0004,-0.1384,9.8074,0.00204,-0.02021,6e-05
1710000014.09,0.0257,0.012,9.8511,0.01285,-0.00897,0.00422
1710000014.1,-0.0209,0.0405,9.8583,0.00633,0.00108,-0.0087
1710000014.11,0.1115,-0.0456,9.7974,-0.01992,-0.00282,0.0007
1710000014.12,-0.0784,-0.0235,9.7174,-0.00377,-0.00788,0.00281
1710000014.13,0.063,0.0462,9.7722,0.00125,0.00445,-0.01348
1710000014.14,0.0684,-0.0875,9.8051,-0.00418,-0.00557,0.00311
1710000014.15,-0.0426,-0.0661,9.7712,0.01171,-0.01872,0.0065
1710000014.16,0.1115,-0.0114,9.7573,0.00446,0.00994,0.00027
1710000014.17,0.0498,-0.0376,9.8135,-0.01909,-0.00101,-0.01503
1710000014.18,0.0486,-0.0147,9.9315,-0.00377,0.00335,-0.00966
1710000014.19,0.0014,-0.0632,9.7856,0.00018,-0.01094,0.00452
1710000014.2,-0.0109,0.0107,9.8099,-0.00804,-0.00978,0.01772
1710000014.21,-0.0105,-0.0075,9.7444,0.00676,-0.01741,0.00425
1710000014.22,0.0195,0.0275,9.8722,0.0055,0.00385,-0.00275
1710000014.23,0.0701,0.01,9.8537,0.00383,-0.00211,0.00189
1710000014.24,0.0091,0.0103,9.8503,0.00726,0.01188,-0.00275
1710000014.25,-0.0456,-0.0723,9.878,0.01335,-0.00631,0.00348
1710000014.26,0.0412,0.0246,9.7886,0.00826,-0.00988,0.00464
1710000014.27,0.0461,-0.0165,9.7949,0.00805,-0.0102,-0.01586
1710000014.28,0.0327,-0.0083,9.8955,-0.00019,0.00751,0.01244
1710000014.29,0.0373,0.0524,9.8416,-0.0058,0.02316,0.01732
1710000014.3,-0.0135,-0.036,9.699,0.02046,-0.00364,-0.01207
1710000014.31,-0.0464,0.0676,9.8327,0.00414,0.00603,-0.00687
1710000014.32,-0.0434,0.0722,9.7809,-0.00965,-0.00528,0.00728
1710000014.33,-0.0818,0.0376,9.8549,-0.00078,-0.00403,-0.00314
1710000014.34,0.0118,-0.049,9.8304,-0.0035,-0.01171,-0.01154
1710000014.35,-0.0042,-0.1093,9.723,0.00828,0.0011,-0.0158
1710000014.36,-0.022,0.0539,9.8234,-0.00313,-0.00638,-0.00153
1710000014.37,-0.1478,0.0056,9.8205,-0.01541,-0.00929,-0.01277
1710000014.38,-0.0624,-0.0373,9.8282,0.00585,0.01165,0.00559
1710000014.39,0.056,0.0587,9.8388,-0.00534,0.0087,0.00012
1710000014.4,-0.0332,-0.0431,9.8848,-0.02307,0.01194,0.01752
1710000014.41,0.018,-0.0212,9.8307,0.00906,0.00249,0.01186
1710000014.42,-0.0695,0.0262,9.8111,-0.01312,-0.00791,-0.00042
1710000014.43,0.0719,-0.0557,9.8674,-0.00989,0.00348,0.0117
1710000014.44,-0.0072,-0.0055,9.9221,0.0008,0.0027,-0.00633
1710000014.45,0.0145,0.0545,9.8558,0.0014,-0.00856,-0.0077
1710000014.46,0.1163,0.0106,9.8203,-0.00543,0.01877,0.01268
1710000014.47,0.0758,0.0624,9.8316,0.00365,-2e-05,0.01925
1710000014.48,-0.0153,0.0567,9.8228,0.00838,0.00174,0.01107
1710000014.49,-0.0297,0.0004,9.8109,-0.00921,0.00175,-0.01204
1710000014.5,-0.0163,-0.1168,9.9183,0.00072,0.00488,-0.0127
1710000014.51,0.0255,-0.0553,9.7725,0.0013,-0.00259,0.00709
1710000014.52,-0.0053,0.0382,9.8677,0.01196,0.01265,-0.00899
1710000014.53,-0.0198,-0.0775,9.8037,0.00211,0.01451,-0.00842
1710000014.54,0.0734,-0.0163,9.736,-0.01846,-0.01921,-0.0016
1710000014.55,-0.0057,0.0169,9.8006,0.02305,-0.00224,-0.00666
1710000014.56,0.115,0.0735,9.7827,0.00105,0.01116,0.01884
1710000014.57,0.0045,-0.0288,9.8389,0.00248,0.00457,0.01678
1710000014.58,0.0893,-0.0322,9.8146,-0.00115,-0.01082,0.01636
1710000014.59,0.0179,-0.0026,9.7589,0.00264,-0.00391,-0.00294
1710000014.6,0.0481,0.0175,9.8836,0.00416,0.01513,0.01746
1710000014.61,-0.0362,-0.0077,9.8645,0.00763,-0.01588,-0.0013
1710000014.62,-0.0427,0.0525,9.8893,-0.00165,0.00126,0.00741
1710000014.63,0.023,-0.04,9.8218,-0.024,-0.00095,0.00821
1710000014.64,0.0494,0.006,9.8082,-0.00451,-0.0039,-0.00649
1710000014.65,0.002,0.0223,9.8452,-0.00227,-0.00316,0.00824
1710000014.66,-0.0643,-0.02,9.7811,-0.00701,0.0063,-0.00253
1710000014.67,-0.068,0.042,9.8165,-0.01101,0.00695,0.00579
1710000014.68,-0.0714,0.0074,9.8012,-0.00495,0.00321,-0.00754
1710000014.69,-0.0884,0.0394,9.7369,0.0084,0.00623,0.00531
1710000014.7,0.0055,0.0097,9.8164,0.00298,-0.00138,0.00677
1710000014.71,0.0563,0.0188,9.788,-0.0137,0.01385,0.00745
1710000014.72,-0.0007,-0.0316,9.7979,-0.0177,0.00721,0.02115
1710000014.73,-0.113,-0.0315,9.8282,-0.01784,-0.0057,0.01408
1710000014.74,-0.0095,0.0612,9.8736,0.00225,0.00503,-0.00687
1710000014.75,-0.0081,0.0318,9.7676,-0.01528,0.01049,-0.00819
1710000014.76,0.1048,-0.0511,9.7932,-0.00108,0.00211,0.01149
1710000014.77,-0.0729,0.009,9.7717,0.0063,-0.00959,0.01507
1710000014.78,-0.0195,-0.1187,9.7685,0.00372,-0.0182,-0.02179
1710000014.79,0.0853,-0.0287,9.7803,-0.00371,0.00653,0.00425
1710000014.8,0.0225,0.0481,9.8002,0.0153,-0.01084,-0.0187
1710000014.81,0.0282,-0.0063,9.8393,-0.00637,-0.0083,0.00517
1710000014.82,0.0057,0.0059,9.826,0.00107,-0.00798,0.00965
1710000014.83,0.0165,-0.1508,9.7572,-0.00412,-0.00976,0.00086
1710000014.84,0.0389,-0.0196,9.8747,-0.00226,-0.00338,-0.00017
1710000014.85,-0.0405,0.0169,9.8572,0.00793,0.00081,-0.00246
1710000014.86,0.0439,0.0233,9.7649,0.00618,-0.00733,0.00634
1710000014.87,-0.0687,0.0481,9.8712,-0.01844,-0.0086,0.006
1710000014.88,0.0164,-0.0105,9.8263,-0.01058,-0.00363,0.01014
1710000014.89,0.0089,-0.0083,9.8022,0.00798,-0.00228,0.00445
1710000014.9,-0.0308,-0.0666,9.8279,-0.01339,0.0027,-0.01153
1710000014.91,-0.0011,-0.0102,9.8087,-0.01045,0.00219,-0.01824
1710000014.92,-0.0311,-0.0631,9.8373,0.00314,-0.01231,-0.00876
1710000014.93,-0.0536,-0.0924,9.8194,0.00942,0.00857,-0.00166
1710000014.94,-0.0177,-0.0543,9.7931,0.00816,-0.01373,0.01555
1710000014.95,-0.0552,0.0754,9.7087,-0.01642,0.00246,0.00843
1710000014.96,0.0161,-0.0135,9.8364,-0.00302,-0.00136,0.01881
1710000014.97,-0.0575,0.011,9.7913,-0.00411,0.01681,0.00691
1710000014.98,0.0356,-0.0257,9.8489,-0.00631,-0.00458,0.01198
1710000014.99,-0.0591,-0.0895,9.8341,-0.01606,0.00046,-0.01851
1710000015.0,-0.0283,0.0468,9.7926,0.01337,0.00071,-0.01459
1710000015.01,-0.0312,-0.1086,9.8611,-0.00145,0.00599,0.01427
1710000015.02,0.0663,-0.0277,9.8202,-0.01007,0.01181,0.00191
1710000015.03,0.0165,-0.0027,9.8182,0.00328,0.00267,-0.00112
1710000015.04,-0.0106,0.0115,9.8031,-0.00201,0.02311,-0.01842
1710000015.05,0.0249,-0.0363,9.8942,0.00808,-0.00257,0.00671
1710000015.06,-0.1054,-0.0919,9.7743,-0.00522,0.01201,-0.00172
1710000015.07,-0.0022,-0.0401,9.7939,-0.00466,0.00238,-0.02074
1710000015.08,0.0999,-0.0374,9.7481,-3e-05,0.00141,0.00683
1710000015.09,0.0066,-0.0387,9.8463,0.00661,-0.01211,-0.00144
1710000015.1,0.0034,0.0485,9.7809,-0.01007,0.00587,-0.00231
1710000015.11,0.0274,-0.0607,9.7865,-0.01426,-0.00223,0.00758
1710000015.12,0.0448,0.015,9.7842,0.00486,-0.00027,-0.00715
1710000015.13,-0.0999,0.0079,9.8131,0.00257,-0.00013,-0.01268
1710000015.14,-0.0841,0.048,9.7475,0.00028,0.00544,-0.00629
1710000015.15,0.0105,-0.0067,9.6978,0.0006,0.01172,0.00876
1710000015.16,-0.0357,0.0396,9.8329,8e-05,-0.00188,-0.01057
1710000015.17,0.0656,-0.0086,9.7043,0.01328,-0.00328,0.00138
1710000015.18,-0.0158,0.0217,9.8527,0.00188,0.00247,0.01051
1710000015.19,-0.0967,-0.0751,9.8879,-0.00216,-0.01051,0.00061
1710000015.2,-0.0634,-0.1319,9.8018,-0.01058,-0.0086,-0.00565
1710000015.21,-0.1375,0.0189,9.875,-0.00405,0.00523,0.00607
1710000015.22,-0.0117,0.0216,9.8088,0.00535,-0.00568,-0.00029
1710000015.23,-0.0094,0.0238,9.89,0.00722,0.00795,-0.00263
1710000015.24,-0.0212,-0.0262,9.7872,-0.01482,-0.00103,-0.0065
1710000015.25,0.0539,0.0745,9.6918,0.00867,-0.00349,0.0007
1710000015.26,0.0599,-0.023,9.806,-0.0014,0.0114,0.00795
1710000015.27,-0.0085,0.021,9.8954,0.02334,-0.00659,-0.00505
1710000015.28,-0.1067,0.0297,9.8367,0.01198,1e-05,-0.00177
1710000015.29,0.0309,0.0859,9.7842,-0.00204,-0.00633,0.00899
1710000015.3,0.0278,-0.0159,9.8264,-0.01192,-0.00014,-0.00064
1710000015.31,0.0155,-0.0327,9.8586,-0.01057,0.0064,-0.00124
1710000015.32,0.0491,-0.0749,9.8057,-0.00563,0.00153,-0.01334
1710000015.33,-0.0582,0.0776,9.9413,0.01766,-0.0004,0.00059
1710000015.34,0.1004,0.0211,9.7841,-0.00341,-0.00132,0.00512
1710000015.35,-0.048,0.0227,9.8601,0.00183,0.00267,-0.00314
1710000015.36,0.0375,0.1558,9.8481,-0.00178,0.00448,0.00192
1710000015.37,-0.0844,0.0163,9.775,-0.00232,0.00432,-0.00445
1710000015.38,-0.0465,-0.0651,9.7888,-0.00455,0.00173,-0.01503
1710000015.39,0.0758,-0.0098,9.8609,0.01425,-0.00584,-0.02012
1710000015.4,-0.013,-0.0487,9.8172,0.00827,-0.00136,0.00941
1710000015.41,0.042,-0.0198,9.8269,-0.01465,-0.00442,0.01894
1710000015.42,0.0118,-0.0201,9.7282,-0.01692,0.00381,0.01349
1710000015.43,-0.0052,-0.0294,9.8428,0.00775,-0.00262,-0.00764
1710000015.44,0.0682,-0.0697,9.8244,0.0104,-0.00235,0.00887
1710000015.45,-0.0118,0.0796,9.8068,-0.0096,0.01441,-0.00562
1710000015.46,-0.089,0.0149,9.828,-0.00466,-0.00091,-0.00779
1710000015.47,-0.0402,-0.0113,9.7895,0.01066,-0.01807,0.01298
1710000015.48,0.0276,0.0379,9.7804,0.00606,0.01661,-0.00733
1710000015.49,0.0198,0.0236,9.7979,-0.00029,-1e-05,-0.00264
1710000015.5,-0.0784,0.0138,9.7868,0.00542,-0.00313,-0.00285
1710000015.51,-0.0362,0.0342,9.919,-0.00277,-0.00317,-0.00662
1710000015.52,-0.0291,0.0067,9.8556,-0.00431,-0.00335,0.0152
1710000015.53,-0.0183,0.0335,9.7616,0.01041,0.0123,0.01402
1710000015.54,-0.0688,0.0377,9.9118,-0.00688,-0.00567,-0.01538
1710000015.55,-0.0314,0.0081,9.7884,-0.00493,-0.00568,0.00451
1710000015.56,-0.0364,-0.011,9.8115,0.01675,-0.00171,-0.00145
1710000015.57,0.0386,0.0765,9.8549,-0.00882,-0.01551,-0.00714
1710000015.58,0.0405,-0.0239,9.7115,0.01644,-0.00415,-0.00373
1710000015.59,-0.0073,0.0196,9.7981,0.00155,0.00974,0.00202
1710000015.6,-0.0196,0.0207,9.7813,-0.00017,0.00305,0.00095
1710000015.61,0.007,-0.0305,9.8203,0.00499,0.00539,0.00601
1710000015.62,-0.0408,-0.0404,9.8285,0.00817,-0.00592,0.00678
1710000015.63,-0.0573,-0.0177,9.8061,0.01341,-0.01592,-0.01458
1710000015.64,-0.047,-0.0246,9.8038,-0.00246,0.00642,-0.00131
1710000015.65,-0.0317,-0.0729,9.8633,0.00424,-0.00964,-0.00224
1710000015.66,-0.0582,-0.0326,9.8251,-0.00468,-0.01521,0.00857
1710000015.67,0.0081,0.0133,9.8121,-0.00569,-0.00752,-0.02281
1710000015.68,0.0365,0.0633,9.8174,0.001,-0.00647,0.01772
1710000015.69,-0.0794,0.0277,9.9018,0.00713,-0.011,-0.00011
1710000015.7,0.0013,-0.13,9.8186,-0.00944,0.00028,0.00342
1710000015.71,-0.011,0.0321,9.7843,-0.0162,0.02131,-0.01873
1710000015.72,0.0171,-0.0279,9.7146,-0.01045,-0.00045,-0.00321
1710000015.73,-0.0006,0.0227,9.7383,-0.00502,-0.00626,-0.01094
1710000015.74,-0.0727,-0.0007,9.7866,0.01264,0.0006,0.01014
1710000015.75,-0.0631,-0.0096,9.8046,-0.00866,0.00927,-0.00492
1710000015.76,0.0015,-0.0051,9.7822,0.00474,-0.02143,-0.00143
1710000015.77,0.0514,-0.0011,9.8276,0.01111,-0.00414,-0.00697
1710000015.78,-0.1107,0.0672,9.7816,-0.00794,0.00253,-0.00998
1710000015.79,0.0173,-0.001,9.7643,0.01337,0.00348,0.00725
1710000015.8,0.0595,0.0543,9.8406,0.00553,-0.0047,-0.00978
1710000015.81,-0.0077,0.047,9.8785,-0.00992,-0.01317,0.00185
1710000015.82,0.0275,0.0334,9.7546,-0.00417,0.00193,-0.0053
1710000015.83,-0.0352,-0.0893,9.8222,-0.00816,-0.0076,0.00405
1710000015.84,-0.006,0.0558,9.7147,-0.00283,-0.02652,0.0086
1710000015.85,-0.081,-0.0229,9.7363,0.00372,0.00111,0.00101
1710000015.86,-0.1172,0.0358,9.7806,-0.00678,0.00238,0.00941
1710000015.87,0.0471,-0.0486,9.8667,0.00342,-0.00214,0.00908
1710000015.88,-0.0492,-0.0593,9.7711,0.00151,0.01677,0.00343
1710000015.89,-0.0228,0.0988,9.7692,-0.01089,0.00459,0.00202
1710000015.9,-0.0693,-0.0478,9.8118,0.00347,0.00131,-0.00809
1710000015.91,-0.0705,0.0573,9.8119,0.01049,0.0147,-0.00704
1710000015.92,-0.0087,0.0059,9.7707,-0.00265,0.01837,0.00266
1710000015.93,-0.0365,-0.021,9.9093,0.00711,0.00878,-0.00784
1710000015.94,0.0189,-0.0022,9.7967,-0.01049,-0.00449,-0.00487
1710000015.95,0.0226,-0.0651,9.8157,0.01515,0.00425,0.00664
1710000015.96,0.016,-0.0007,9.7899,0.00582,0.00803,0.00948
1710000015.97,0.0119,-0.0541,9.832,0.00681,-0.02386,-0.02826
1710000015.98,0.0789,-0.0198,9.8717,-0.00684,-0.01179,-0.00096
1710000015.99,-0.0534,0.0463,9.8932,0.00684,0.00557,0.00795
1710000016.0,-0.0027,0.0127,9.7719,0.00391,-0.00107,-0.00413
1710000016.01,0.0566,-0.0741,9.865,0.00721,0.00518,0.00618
1710000016.02,0.0632,0.0426,9.8375,0.01279,0.00672,0.00523
1710000016.03,-0.0711,-0.0004,9.8587,-0.00508,-0.00894,-0.0009
1710000016.04,-0.0156,-0.0271,9.8054,0.01279,-0.00203,-0.00518
1710000016.05,0.0679,0.0373,9.8006,0.00743,0.00135,-0.01134
1710000016.06,0.0254,-0.0084,9.8568,-0.01191,0.00843,-0.01543
1710000016.07,0.0098,-0.0583,9.8577,0.01636,0.00845,0.00148
1710000016.08,-0.0109,0.0924,9.8883,-0.00542,-0.0162,-0.01559
1710000016.09,-0.0192,-0.0009,9.8199,0.00194,-0.02128,0.00664
1710000016.1,0.0144,-0.0041,9.8047,0.00237,-0.00568,0.00922
1710000016.11,-0.0126,-0.0203,9.687,-0.00963,0.01137,0.0087
1710000016.12,-0.0021,0.059,9.7294,0.0086,-0.00559,-0.0058
1710000016.13,0.0039,-0.0262,9.7903,-0.00443,0.0216,0.01078
1710000016.14,-0.0339,-0.0772,9.7549,-0.0128,-0.01302,-0.02692
1710000016.15,0.0266,-0.0339,9.8507,-0.00824,-0.01016,-0.00614
1710000016.16,0.1457,0.0663,9.7445,-0.01818,-0.00678,-0.01964
1710000016.17,-0.0888,0.0416,9.7849,-0.01337,-0.00966,0.00282
1710000016.18,0.0162,-0.0128,9.7869,0.00986,-0.00862,-0.00714
1710000016.19,-0.038,0.0687,9.8702,-0.01536,0.00233,-0.01035
1710000016.2,0.0289,0.0374,9.7796,0.00339,0.00027,-0.01703
1710000016.21,0.0023,-0.0133,9.8326,-0.00586,-0.01009,0.00214
1710000016.22,0.0381,-0.0083,9.8198,0.01077,0.00071,-0.00171
1710000016.23,0.0588,0.0165,9.8552,-0.00025,-0.00662,-0.00801
1710000016.24,0.0096,-0.0416,9.8525,-0.01208,0.00723,0.00482
1710000016.25,0.0566,0.0002,9.8083,0.00581,0.00287,-0.00688
1710000016.26,-0.1172,0.0154,9.7252,-0.00387,0.00522,0.00527
1710000016.27,0.0795,-0.0843,9.7984,0.00666,0.00058,-0.01476
1710000016.28,0.0188,-0.0095,9.809,0.0032,-0.00132,0.01588
1710000016.29,0.0539,-0.0152,9.8243,-0.01061,0.00185,0.01739
1710000016.3,-0.061,0.0514,9.7731,-0.00135,0.02643,-0.00623
1710000016.31,-0.0415,-0.0922,9.867,-0.00576,-0.00514,0.01342
1710000016.32,0.0073,-0.0191,9.8107,-0.00264,0.00645,-0.00607
1710000016.33,-0.0009,-0.0241,9.764,-0.00144,0.00638,0.00398
1710000016.34,0.0142,0.048,9.7871,-0.016,0.0236,-0.02087
1710000016.35,0.0542,-0.0022,9.9064,0.00292,0.01192,-0.00717
1710000016.36,-0.0883,0.0898,9.8432,-0.00337,-0.01769,0.00751
1710000016.37,0.0487,0.0331,9.8624,-0.01283,-0.00343,0.01766
1710000016.38,0.0004,-0.0205,9.7579,-0.0117,-0.02162,-0.00145
1710000016.39,-0.0102,0.012,9.7756,-0.01745,0.00358,-0.01307
1710000016.4,-0.0736,-0.0177,9.7759,0.01943,0.00256,0.00307
1710000016.41,0.0252,0.043,9.8192,-0.00041,-0.00317,-0.01417
1710000016.42,-0.1207,-0.0666,9.8013,0.00363,0.00289,-0.00992
1710000016.43,0.0324,-0.0412,9.7855,0.01432,0.00723,-0.00481
1710000016.44,-0.0746,0.0228,9.7918,0.02723,-0.00547,0.0041
1710000016.45,0.0027,0.0613,9.7703,-0.00718,-0.01035,-0.00987
1710000016.46,-0.006,-0.1101,9.801,-0.00529,-0.00572,-0.00478
1710000016.47,0.0585,0.0687,9.8657,-0.01014,0.00482,0.0014
1710000016.48,-0.0089,-0.007,9.7343,-0.00159,-5e-05,0.00627
1710000016.49,-0.0347,-0.0942,9.8273,-0.01816,0.00858,-0.01407
1710000016.5,-0.0253,-0.1501,9.879,0.013,-0.01318,-0.00519
1710000016.51,0.0636,-0.0765,9.8008,0.00493,0.00879,0.00082
1710000016.52,0.0268,-0.001,9.7836,-0.00214,0.01272,0.00195
1710000016.53,-0.0193,-0.0033,9.8562,-0.01468,0.01928,0.00288
1710000016.54,-0.0118,0.0317,9.7608,0.01433,0.00296,0.00216
1710000016.55,-0.0784,-0.0275,9.8089,-0.00447,0.00152,-0.00279
1710000016.56,0.0194,-0.0554,9.758,0.01732,0.00774,0.00949
1710000016.57,-0.088,-0.0207,9.7165,-0.00305,-0.00038,0.00668
1710000016.58,0.0376,0.0017,9.8024,0.0007,-0.00831,0.01179
1710000016.59,0.0064,0.0115,9.7468,-0.01252,-0.01449,-0.00649
1710000016.6,0.1193,-0.0395,9.8094,0.01204,-0.00741,-0.01212
1710000016.61,-0.055,0.0451,9.8658,-0.01676,0.01447,-0.00278
1710000016.62,-0.0051,-0.0311,9.9027,0.00774,0.00311,0.00045
1710000016.63,0.0899,-0.0435,9.8147,0.01378,-0.01406,0.00273
1710000016.64,0.0596,-0.0271,9.861,-0.01666,0.00057,-0.01895
1710000016.65,-0.0348,0.0537,9.8299,0.0093,0.00506,-0.00941
1710000016.66,0.0112,-0.0066,9.7908,0.01438,0.00945,-0.00797
1710000016.67,0.0001,-0.0347,9.7138,0.00432,-0.00781,0.00251
1710000016.68,0.0141,0.0463,9.8913,0.00587,-0.00108,-0.01329
1710000016.69,-0.0349,0.1071,9.7575,0.00384,-0.01639,0.00489
1710000016.7,-0.0045,0.0105,9.8791,0.00067,0.00514,-0.0132
1710000016.71,-0.0799,0.0617,9.8368,-0.01025,-0.02247,-0.00814
1710000016.72,0.0068,0.0518,9.7612,-0.00054,-0.00286,-0.01153
1710000016.73,0.0225,-0.0303,9.8256,-0.00303,-0.00586,0.00127
1710000016.74,-0.0114,0.0013,9.9166,0.01878,0.01707,0.00642
1710000016.75,-0.0808,-0.0641,9.8868,-0.00067,0.01328,0.01912
1710000016.76,0.0494,-0.0102,9.7844,-0.00032,-0.00951,0.00258
1710000016.77,0.0182,-0.0313,9.7744,0.00189,-0.00293,-0.00276
1710000016.78,-0.0363,-0.0201,9.815,0.00451,-0.01977,-0.00559
1710000016.79,-0.014,-0.0375,9.8017,-0.00775,-0.00976,0.00137
1710000016.8,-0.075,-0.0144,9.87,0.00951,-0.01064,0.02187
1710000016.81,-0.0513,0.0266,9.847,-0.00081,0.00327,-0.00862
1710000016.82,-0.0269,-0.006,9.7254,0.00735,0.00603,0.01655
1710000016.83,0.0614,-0.0932,9.8329,-0.00903,-0.01077,0.00668
1710000016.84,-0.032,-0.0373,9.801,-0.00136,0.01305,-0.00734
1710000016.85,0.032,-0.076,9.8119,0.01487,0.01926,2e-05
1710000016.86,-0.0269,0.0122,9.8224,0.0199,-0.00666,-0.01755
1710000016.87,0.0124,0.0252,9.8699,0.0067,-0.00749,0.00449
1710000016.88,-0.0071,0.0128,9.8589,-0.01118,0.00924,-0.01175
1710000016.89,0.0437,-0.0394,9.7725,-0.01841,-0.00172,0.0004
1710000016.9,-0.0267,0.0123,9.8071,0.0067,-0.00018,-0.00151
1710000016.91,-0.0786,-0.0235,9.7876,0.01983,0.00151,0.00321
1710000016.92,-0.0691,-0.0569,9.7259,-0.00386,0.00455,-0.00496
1710000016.93,-0.0266,0.0371,9.8045,-0.00188,0.0249,0.00346
1710000016.94,-0.0625,0.0409,9.9022,0.00278,-0.00371,-0.00425
1710000016.95,0.0205,0.0474,9.7244,0.02519,0.00468,-0.00349
1710000016.96,-0.0233,-0.0304,9.8088,0.00193,-0.01306,0.00413
1710000016.97,0.1187,0.059,9.8072,0.0021,-0.01953,-0.01464
1710000016.98,-0.0869,-0.0247,9.8244,-0.00369,0.01097,0.00158
1710000016.99,0.0102,0.0327,9.7619,0.00114,-0.00517,-0.00781
1710000017.0,-0.0564,-0.0255,9.7387,0.01139,0.00641,-0.0066
1710000017.01,-0.0247,-0.0112,9.7411,-0.00639,0.00507,-0.01485
1710000017.02,0.0071,-0.1211,9.8765,0.00965,0.00749,-0.01581
1710000017.03,-0.1163,-0.0151,9.7609,0.01008,-0.005,-0.0051
1710000017.04,0.0118,0.0046,9.785,-0.00783,0.00596,-0.00132
1710000017.05,0.0951,-0.0205,9.9152,0.00808,0.01683,0.00229
1710000017.06,-0.0227,0.0878,9.7733,0.02066,0.00159,-0.00138
1710000017.07,0.013,-0.0581,9.8271,-0.01211,0.01071,0.00376
1710000017.08,0.0512,-0.0282,9.8632,-0.00139,-0.00378,-0.00509
1710000017.09,-0.0082,-0.0452,9.8608,0.00267,-0.00225,-0.0045
1710000017.1,-0.029,-0.0282,9.7434,0.00396,0.01311,0.01486
1710000017.11,-0.1138,0.0516,9.7743,-0.00941,-0.00509,0.0066
1710000017.12,0.032,0.0739,9.8251,-0.01244,-0.0043,-0.00673
1710000017.13,-0.0057,-0.035,9.9065,-0.00731,-0.00508,-0.00349
1710000017.14,-0.0506,-0.0362,9.7719,0.00107,-0.00892,-0.00993
1710000017.15,0.0063,-0.0579,9.7853,-0.00462,0.0057,0.01208
1710000017.16,-0.0292,0.0653,9.831,0.00876,-0.00112,-0.00035
1710000017.17,-0.0264,0.0561,9.841,0.01216,0.00352,-0.01362
1710000017.18,0.0303,-0.0053,9.844,-0.00853,-0.00905,-0.0021
1710000017.19,-0.0669,-0.0698,9.7677,0.00339,-0.00571,-0.01396
1710000017.2,0.0524,-0.0653,9.7834,0.00105,0.00657,-0.00445
1710000017.21,-0.0699,0.0085,9.8208,0.02551,-0.00535,-0.00157
1710000017.22,-0.0331,0.0275,9.8731,-0.00417,0.00681,-0.00509
1710000017.23,0.0961,-0.1033,9.7981,0.00416,-0.00105,0.00137
1710000017.24,0.0564,-0.0161,9.8089,0.02001,0.00318,0.00181
1710000017.25,0.0049,0.0809,9.7587,-0.01986,0.02239,0.00387
1710000017.26,-0.047,-0.0109,9.9032,0.01484,0.00839,0.00538
1710000017.27,-0.0265,0.0745,9.8177,-0.00611,0.01383,0.00999
1710000017.28,0.0037,0.0325,9.8639,-0.01447,-0.00988,0.00312
1710000017.29,0.0019,-0.0542,9.8115,0.0032,0.00436,-0.01015
1710000017.3,-0.0045,-0.0146,9.8143,0.0021,0.01514,0.01297
1710000017.31,-0.0015,-0.0064,9.735,0.00625,0.00578,0.02056
1710000017.32,-0.0107,-0.0476,9.7025,0.00761,-0.00141,-0.01005
1710000017.33,-0.0721,-0.0485,9.8726,-0.00098,-0.0018,-0.00886
1710000017.34,-0.0258,0.0753,9.8139,0.01767,-0.0084,0.01004
1710000017.35,0.0457,-0.0489,9.8203,0.01402,-0.00327,0.00947
1710000017.36,-0.0684,0.0539,9.7475,0.00461,-0.00634,-0.00516
1710000017.37,-0.0095,-0.0218,9.7648,0.00369,-0.00694,-0.01521
1710000017.38,-0.041,-0.0013,9.8631,0.01195,0.00581,-0.01785
1710000017.39,0.0056,0.0281,9.897,0.00056,-0.00408,-0.00712
1710000017.4,-0.0194,-0.0299,9.7789,-0.01216,0.00579,0.01227
1710000017.41,0.0739,0.0284,9.8436,-0.00092,0.00082,0.0008
1710000017.42,0.0253,-0.1023,9.8195,-0.00324,0.0211,-0.00484
1710000017.43,-0.0656,0.022,9.804,0.00153,-0.00197,0.01448
1710000017.44,0.0336,-0.1234,9.9026,-0.01167,0.00619,0.00304
1710000017.45,-0.0387,-0.0113,9.7873,-0.01036,-0.00656,-0.00496
1710000017.46,-0.0288,0.0427,9.872,0.01168,-0.00342,-0.013
1710000017.47,0.0157,0.0311,9.8291,0.00092,-0.00067,-0.00952
1710000017.48,-0.0246,-0.0649,9.8092,-0.00262,0.00233,0.01458
1710000017.49,0.0446,-0.0585,9.8786,-0.00407,-0.0009,-0.00242
1710000017.5,-0.0387,-0.0344,9.8245,-0.00133,-0.00771,-0.01647
1710000017.51,-0.0309,0.0093,9.8052,0.00193,0.00834,-0.00412
1710000017.52,-0.0328,-0.1016,9.879,-0.01629,0.00494,0.00279
1710000017.53,-0.0283,-0.0007,9.8725,-0.00373,0.01023,-0.0005
1710000017.54,0.055,0.0156,9.8701,0.00224,0.00025,0.01333
1710000017.55,0.0314,-0.0142,9.6156,-0.00121,0.01366,0.00914
1710000017.56,0.0855,0.0263,9.832,-0.01715,-0.00147,-0.01039
1710000017.57,0.1134,0.0112,9.8206,0.00052,-0.01467,-0.00667
1710000017.58,-0.0515,-0.0271,9.8083,-8e-05,0.0013,0.00108
1710000017.59,0.0035,-0.0968,9.8405,-0.00666,-0.02223,0.00405
1710000017.6,-0.0588,0.0067,9.823,-0.00896,0.00232,-0.00861
1710000017.61,-0.0389,-0.0477,9.8439,0.00229,0.00274,0.00689
1710000017.62,-0.0315,-0.0289,9.7966,0.00139,-0.02064,-0.00507
1710000017.63,-0.0529,0.024,9.8849,0.00494,-0.01946,0.00544
1710000017.64,-0.0526,0.0709,9.8489,0.02111,-0.01022,-0.00049
1710000017.65,-0.0072,-0.0019,9.8371,0.00606,-0.00071,-0.00047
1710000017.66,-0.0608,0.0277,9.8347,-0.00694,-0.01301,0.00193
1710000017.67,0.0421,-0.0722,9.8679,0.01288,0.01268,0.00226
1710000017.68,-0.0459,0.0123,9.8611,-0.00221,-0.01131,0.00092
1710000017.69,0.1405,-0.003,9.8044,-0.00217,0.00855,-0.0007
1710000017.7,-0.0226,0.0615,9.8595,-0.00871,-0.02052,0.00815
1710000017.71,0.0036,-0.027,9.8187,0.00605,0.01368,0.02151
1710000017.72,-0.0648,-0.0121,9.9058,-0.00268,0.00788,0.00945
1710000017.73,0.0853,0.0529,9.8649,0.00918,-0.0167,-0.00511
1710000017.74,0.056,-0.0046,9.7787,0.00627,0.00093,0.00904
1710000017.75,0.0148,-0.0554,9.9265,-0.00801,0.00547,0.00549
1710000017.76,-0.0673,0.1276,9.7049,-0.0091,0.01474,0.00928
1710000017.77,0.0105,-0.0539,9.8419,0.00289,-0.01509,0.00457
1710000017.78,-0.0561,-0.0032,9.7752,0.01287,0.01693,0.00226
1710000017.79,0.0731,0.0173,9.9041,0.01104,-0.00245,-0.02239
1710000017.8,0.0405,0.0134,9.8226,0.01568,0.02258,-0.00541
1710000017.81,0.0048,-0.0095,9.7703,0.00213,0.01637,0.00803
1710000017.82,-0.1218,-0.0092,9.7967,0.00959,-0.03377,0.01178
1710000017.83,-0.0492,-0.0117,9.7743,0.01191,0.00666,-0.01271
1710000017.84,0.0344,-0.0558,9.7947,0.02065,-0.00187,-0.01105
1710000017.85,0.0606,0.1075,9.7936,0.00469,0.00908,0.00767
1710000017.86,0.0555,-0.011,9.7724,-0.00316,0.00573,-0.00389
1710000017.87,-0.0796,0.0298,9.8235,0.01225,0.0031,0.00285
1710000017.88,0.0151,-0.0167,9.8296,-0.01253,0.00718,0.00385
1710000017.89,0.0508,-0.0177,9.7602,0.01154,-0.01001,0.00949
1710000017.9,-0.0829,-0.0228,9.7271,0.01417,-0.01845,0.01416
1710000017.91,-0.0004,-0.0775,9.8255,0.01092,0.00633,-0.00935
1710000017.92,0.0137,-0.008,9.8366,-0.00863,0.00298,-0.00705
1710000017.93,-0.015,-0.0204,9.8465,0.00301,0.01198,0.01065
1710000017.94,-0.0926,0.0586,9.8376,0.01169,0.00583,-0.00081
1710000017.95,-0.0163,-0.0598,9.8886,0.00606,-0.00459,0.00358
1710000017.96,-0.0164,-0.0289,9.8599,0.00118,0.00319,-0.01207
1710000017.97,-0.0074,-0.0449,9.944,0.00295,0.01368,-0.00218
1710000017.98,-0.0282,0.0721,9.965,0.03161,0.00195,0.00866
1710000017.99,-0.0222,-0.0435,9.7221,-0.00911,-0.02085,0.0034
1710000018.0,-0.002,0.0281,9.7001,-0.01189,0.01438,-0.00049
1710000018.01,0.0221,0.0485,9.8096,-0.00863,-0.01054,-0.01897
1710000018.02,-0.0152,-0.0073,9.8352,0.02209,-0.00595,-0.01427
1710000018.03,-0.0205,-0.0688,9.8062,0.008,-0.01045,0.00964
1710000018.04,0.0046,-0.0682,9.8452,-0.00479,0.00194,0.00458
1710000018.05,-0.096,0.043,9.7965,0.02308,-0.00389,0.00345
1710000018.06,0.0239,-0.063,9.7753,-0.01059,0.00655,0.01024
1710000018.07,-0.0,0.0196,9.7829,-0.00515,0.00889,0.00417
1710000018.08,0.002,0.0057,9.8,-0.01103,-0.01596,-0.00864
1710000018.09,0.048,0.0189,9.8522,0.00148,-0.022,0.00277
1710000018.1,-0.0976,0.0236,9.7857,0.00545,-0.00611,0.00341
1710000018.11,-0.0987,-0.0467,9.7956,0.00222,0.00921,0.00139
1710000018.12,0.0137,-0.0488,9.8385,0.01271,0.0036,0.0043
1710000018.13,-0.0004,0.0357,9.8001,-0.00326,0.00744,-0.00158
1710000018.14,0.0085,-0.0315,9.8658,-0.00213,-0.0124,-0.00333
1710000018.15,-0.0231,-0.1375,9.764,0.00375,-0.01235,-0.001
1710000018.16,0.0332,0.0324,9.7532,0.01909,0.00731,0.00909
1710000018.17,0.0466,-0.0518,9.8252,0.00535,-0.01151,0.01697
1710000018.18,0.0242,0.0234,9.8302,-0.00217,0.00316,0.00027
1710000018.19,-0.013,0.0696,9.7668,0.00874,-0.016,0.00765
1710000018.2,-0.1054,0.0008,9.8772,-0.00143,-0.00227,0.00534
1710000018.21,0.0385,0.0498,9.9062,0.00326,-0.00741,0.02059
1710000018.22,0.0611,0.0077,9.7786,-0.00107,0.00591,0.01745
1710000018.23,0.0322,0.0794,9.8844,-0.01155,-0.01663,0.00101
1710000018.24,-0.044,-0.0531,9.6909,-0.00582,0.00905,-0.0039
1710000018.25,0.0337,-0.0004,9.8638,0.01597,0.00104,-0.02037
1710000018.26,0.043,0.0337,9.7671,0.00368,0.00857,0.00198
1710000018.27,0.0779,-0.0095,9.8588,0.00216,-0.00781,0.00276
1710000018.28,-0.0438,0.0576,9.7619,0.00097,0.00805,0.00165
1710000018.29,-0.0113,-0.0216,9.8066,-0.00227,-0.00579,0.00264
1710000018.3,0.0374,0.1035,9.7695,0.00107,0.01423,0.00602
1710000018.31,0.0029,0.1061,9.7993,-0.00314,-0.01636,-0.00049
1710000018.32,-0.0559,0.0141,9.9015,0.00314,-0.01618,-0.01013
1710000018.33,0.0207,0.0276,9.8046,-0.00995,-0.0008,0.00519
1710000018.34,0.0289,0.0596,9.9155,0.0075,0.00149,-5e-05
1710000018.35,0.0044,-0.0594,9.7907,-0.00017,0.00183,-0.00493
1710000018.36,0.011,-0.0656,9.8846,-0.01226,0.0059,0.02033
1710000018.37,-0.0129,0.0628,9.7287,-0.00236,-0.01408,0.0019
1710000018.38,0.0739,0.0137,9.7957,-0.00338,0.01727,-0.00531
1710000018.39,-0.045,-0.0113,9.7832,0.01058,-0.00102,0.00496
1710000018.4,-0.0294,0.0006,9.8869,-0.00117,0.00753,0.02251
1710000018.41,0.0005,-0.1193,9.8193,-0.00737,0.00069,0.00582
1710000018.42,0.0439,-0.0095,9.7056,-0.01944,0.00965,-0.00451
1710000018.43,-0.0749,-0.0377,9.7445,-0.00534,0.03639,0.02518
1710000018.44,-0.0655,0.0459,9.7594,0.01226,-0.01015,0.00576
1710000018.45,-0.1019,0.0498,9.8567,0.00511,0.00088,0.00493
1710000018.46,0.0016,0.0288,9.8503,-0.0082,-0.00189,-0.0071
1710000018.47,-0.0559,0.0198,9.795,-0.00128,0.01294,-0.00017
1710000018.48,-0.0192,-0.0749,9.7826,0.00129,0.00687,0.00864
1710000018.49,0.0331,0.0295,9.8458,0.01618,0.01022,0.00795
1710000018.5,-0.0321,0.0315,9.7535,0.00055,-0.00427,-0.02126
1710000018.51,0.0116,0.0623,9.8329,-0.00481,0.0076,-0.00312
1710000018.52,-0.015,0.1059,9.8286,0.00397,-0.00891,0.00289
1710000018.53,0.0336,-0.0846,9.7963,0.00682,-0.00554,-0.01381
1710000018.54,0.0238,-0.0194,9.8299,0.00809,0.01116,-0.01634
1710000018.55,-0.0346,-0.0371,9.8151,0.00789,0.00931,0.01016
1710000018.56,-0.0084,0.0086,9.8349,0.02187,0.01036,1e-05
1710000018.57,0.0522,0.0007,9.7433,-0.01164,-0.00865,-0.0033
1710000018.58,0.0197,-0.0117,9.8407,-0.00086,0.00736,-0.00254
1710000018.59,-0.0698,0.0514,9.8613,0.00032,-0.0099,0.00579
1710000018.6,0.0328,-0.0551,9.826,-0.0124,0.00057,0.00507
1710000018.61,-0.0542,-0.0521,9.8401,-0.01072,0.00815,0.0084
1710000018.62,0.0706,-0.0512,9.8045,-0.00214,0.00355,0.00383
1710000018.63,0.0512,-0.018,9.8546,-0.00322,0.01208,0.00702
1710000018.64,0.0145,-0.0614,9.8133,-0.00472,-0.01551,0.00978
1710000018.65,0.0079,-0.0024,9.7526,-0.01752,-0.00435,0.01384
1710000018.66,-0.0105,-0.0083,9.851,-0.01078,-0.01311,0.00284
1710000018.67,0.0339,-0.0393,9.7283,-0.00529,-0.00395,0.00018
1710000018.68,-0.0185,0.0437,9.8241,-0.00207,-0.00018,0.01378
1710000018.69,0.0118,-0.003,9.7908,0.00325,0.00032,-0.00881
1710000018.7,0.0436,0.0531,9.7876,-0.0023,0.00872,-0.00642
1710000018.71,-0.0281,-0.0098,9.8186,-0.00638,0.00937,0.00672
1710000018.72,-0.0308,-0.0012,9.7745,0.00386,-0.00502,0.00872
1710000018.73,-0.0597,-0.0281,9.8356,0.00286,0.00454,-0.00705
1710000018.74,-0.0532,-0.0004,9.8128,-0.009,0.01667,0.00489
1710000018.75,-0.0914,0.0356,9.7791,0.01991,0.01612,-0.00163
1710000018.76,0.0365,-0.0206,9.8769,-0.02253,0.00032,-0.00304
1710000018.77,0.0904,0.0259,9.8202,0.00691,0.00565,0.00129
1710000018.78,0.0713,-0.0406,9.8415,0.00936,-0.00029,0.00857
1710000018.79,-0.0813,0.038,9.8808,0.01066,-0.02311,0.01129
1710000018.8,0.0362,-0.029,9.88,0.00354,-0.01262,0.01283
1710000018.81,0.0711,0.0426,9.839,-0.01341,-0.00504,0.00389
1710000018.82,-0.0228,0.003,9.7949,0.01981,-0.00437,-0.0045
1710000018.83,0.0051,0.076,9.7385,-0.01335,-0.00388,-0.00138
1710000018.84,-0.1004,-0.0577,9.8203,-0.01046,-0.00739,-0.00106
1710000018.85,0.0133,-0.0738,9.8647,-0.00514,-0.00043,-0.01177
1710000018.86,-0.0532,-0.0308,9.8277,-0.01242,-0.00237,-0.0104
1710000018.87,0.01,-0.0692,9.6378,-0.01234,-0.0072,-0.02333
1710000018.88,-0.0781,-0.0691,9.8535,-0.00865,-0.00636,-0.00454
1710000018.89,0.0271,0.0311,9.8566,-0.01926,-0.00681,-0.00901
1710000018.9,0.0512,-0.0002,9.7949,0.00132,0.01126,0.0024
1710000018.91,-0.0392,-0.024,9.8594,-0.00424,0.0053,-0.00396
1710000018.92,-0.0568,-0.0193,9.8414,-0.00233,-0.00426,0.01471
1710000018.93,-0.1078,-0.0299,9.7757,0.00297,0.00743,0.00632
1710000018.94,-0.0133,0.0825,9.8736,-0.00114,-0.00465,-0.03165
1710000018.95,-0.0291,-0.0368,9.7466,-0.00639,-0.00233,-0.01033
1710000018.96,-0.0776,-0.0661,9.8071,0.00469,-0.00277,-0.00337
1710000018.97,0.0227,0.0398,9.8021,-0.00261,0.01145,-0.0049
1710000018.98,-0.0225,-0.0108,9.7687,-0.00799,0.0027,-0.00414
1710000018.99,-0.0538,0.1019,9.8252,-0.00134,-0.00409,-0.01596
1710000019.0,-0.0277,-0.0263,9.8755,0.0128,0.01345,0.00333
1710000019.01,0.0536,0.0423,9.8724,-0.00561,-0.00182,-0.00421
1710000019.02,0.0301,0.0541,9.8462,0.00662,-0.01059,-0.01031
1710000019.03,-0.0065,-0.0261,9.7252,-0.00979,-0.00678,-0.011
1710000019.04,0.031,-0.0371,9.7432,0.00032,-0.01581,-0.00186
1710000019.05,-0.058,0.0371,9.8183,0.00282,-0.00709,0.02249
1710000019.06,0.0016,0.0287,9.8083,-0.0086,-0.00443,-0.00456
1710000019.07,0.0074,-0.0705,9.7851,-0.00346,-0.01124,0.0077
1710000019.08,-0.0235,-0.0564,9.9053,-0.00939,-0.00732,0.01054
1710000019.09,0.0218,-0.1268,9.8153,-0.00846,-0.01049,-0.00573
1710000019.1,-0.039,0.0298,9.8371,-9e-05,0.00934,0.00158
1710000019.11,0.0255,-0.0131,9.8594,0.01612,-0.01627,-0.0116
1710000019.12,0.0276,-0.0081,9.8127,0.00421,-0.01262,-0.02344
1710000019.13,-0.1459,-0.0846,9.9396,0.00038,0.00051,0.00046
1710000019.14,0.0595,-0.0549,9.763,0.01426,-0.01619,-0.00022
1710000019.15,-0.1524,-0.0239,9.7797,-0.01301,0.00133,-0.00725
1710000019.16,-0.0308,-0.0336,9.7629,0.01357,-0.01168,0.01182
1710000019.17,0.0513,0.0059,9.8881,-0.00359,0.00434,0.00372
1710000019.18,-0.0159,0.0292,9.8501,0.00297,-0.00623,-0.02048
1710000019.19,-0.0733,0.1135,9.7828,0.00696,-0.00472,-0.00578
1710000019.2,-0.0547,-0.001,9.7668,0.00503,0.00683,0.00112
1710000019.21,0.0513,0.0558,9.8792,-0.0034,0.00033,0.00588
1710000019.22,-0.0961,-0.0415,9.8281,0.00854,-0.01684,0.00368
1710000019.23,0.0564,-0.0837,9.8805,-0.00384,0.00067,0.00288
1710000019.24,-0.0028,-0.0176,9.807,-0.00389,-0.00259,0.00772
1710000019.25,-0.0596,-0.0799,9.8356,-0.00025,-0.00348,-0.01554
1710000019.26,-0.0292,0.0007,9.825,0.00529,-0.00481,-0.00195
1710000019.27,-0.0509,-0.039,9.7788,-0.00971,-0.00903,-0.00847
1710000019.28,0.0433,-0.0977,9.8028,-0.00859,0.00216,0.01588
1710000019.29,0.0366,0.0868,9.7508,-0.01702,-0.00659,0.00429
1710000019.3,-0.086,-0.0269,9.8347,-0.00254,0.01784,0.00443
1710000019.31,-0.0202,-0.0819,9.8481,0.01083,0.01708,0.00619
1710000019.32,-0.0432,0.0449,9.8595,0.03242,-0.00066,-0.00173
1710000019.33,0.0647,-0.0364,9.8433,0.00273,0.00825,-0.00935
1710000019.34,-0.0675,0.0545,9.8036,0.01672,-0.00259,-0.00023
1710000019.35,0.0802,-0.0367,9.8876,0.00064,-0.00449,0.00449
1710000019.36,-0.0017,-0.027,9.8546,0.00136,9e-05,0.02042
1710000019.37,-0.0581,0.0172,9.8794,-0.00095,-0.00938,0.01317
1710000019.38,-0.0339,0.0297,9.8826,-0.00014,-0.00875,-0.00882
1710000019.39,-0.0401,0.0384,9.8037,-9e-05,0.01996,0.00628
1710000019.4,-0.0637,-0.0045,9.8294,-0.00296,-0.00067,0.00848
1710000019.41,0.0047,0.0264,9.8487,0.01803,0.00514,-0.01215
1710000019.42,-0.0614,0.0373,9.7525,0.00581,0.00716,-0.00425
1710000019.43,-0.109,0.01,9.7537,-0.00682,-0.00884,-0.00294
1710000019.44,-0.019,-0.0071,9.745,0.0067,-0.014,-0.01288
1710000019.45,-0.0901,-0.0723,9.8046,0.01028,0.01583,-0.00417
1710000019.46,-0.0376,0.03,9.7933,-0.01201,0.00208,-0.00196
1710000019.47,-0.0455,0.0021,9.7382,0.01068,0.0001,0.00803
1710000019.48,-0.0436,-0.0207,9.8175,0.00934,0.00404,-0.00328
1710000019.49,0.1,0.0639,9.8052,0.00406,0.00408,-0.00646
1710000019.5,0.0028,-0.0714,9.8691,0.01615,0.01005,-0.00499
1710000019.51,0.0123,0.0822,9.9106,0.01039,0.00862,0.01273
1710000019.52,-0.0888,-0.0011,9.8328,-0.00373,-9e-05,0.00733
1710000019.53,-0.0327,0.0159,9.7752,0.00179,7e-05,-0.01416
1710000019.54,0.0108,-0.0198,9.8423,0.01455,0.01355,0.00099
1710000019.55,-0.0512,-0.0834,9.8105,-0.00423,-0.01545,-0.00753
1710000019.56,0.0454,-0.007,9.798,-0.00346,0.00099,-0.01563
1710000019.57,-0.0601,0.0167,9.7669,0.00337,-0.01167,-0.00184
1710000019.58,-0.0143,0.0338,9.7868,-0.00166,-0.01662,0.01552
1710000019.59,-0.0293,-0.0099,9.8011,0.02531,-0.00742,0.00448
1710000019.6,0.0082,-0.1096,9.8502,0.01422,-0.01129,-0.0042
1710000019.61,-0.032,-0.0771,9.8356,0.02246,0.00568,0.0092
1710000019.62,-0.0135,0.1026,9.9013,0.01284,-0.01922,0.00652
1710000019.63,-0.0118,-0.0546,9.8437,0.00271,0.0119,-0.0038
1710000019.64,-0.0367,0.0714,9.8312,-0.01933,-0.00382,0.01213
1710000019.65,0.0243,-0.0467,9.7947,0.00407,0.00804,-0.01116
1710000019.66,0.0119,-0.0091,9.7581,-0.0107,-0.00655,0.01345
1710000019.67,-0.0044,0.0313,9.7815,-0.01516,-0.00748,0.00574
1710000019.68,-0.0215,-0.041,9.775,0.01226,-0.00381,0.00163
1710000019.69,0.0398,0.0796,9.682,-0.01058,-0.00423,-0.00356
1710000019.7,-0.0118,0.0038,9.7596,-0.00675,-0.00358,-0.01992
1710000019.71,-0.0153,0.023,9.8901,-0.00439,-0.00818,-0.00848
1710000019.72,0.0052,-0.0134,9.8284,0.00182,-0.00105,-0.00018
1710000019.73,0.0848,0.0329,9.7912,-0.00026,0.00233,-0.00684
